arduino_time_s,receive_time_s,imu1_acc_x,imu1_acc_y,imu1_acc_z,imu1_gx,imu1_gy,imu1_gz,imu2_acc_x,imu2_acc_y,imu2_acc_z,imu2_gx,imu2_gy,imu2_gz
0.0,1765055843.65516,0.553,-0.372,0.243,-30.05,-56.27,-73.14,-0.172,-0.25,0.039,-54.53,32.18,-48.95
0.016997,1765055843.656131,0.553,-0.372,0.243,-30.05,-56.28,-73.15,-0.172,-0.25,0.039,-54.53,32.18,-48.95
0.033998,1765055843.6843991,0.553,-0.372,0.243,-30.05,-56.28,-73.15,-0.172,-0.25,0.039,-54.53,32.18,-48.96
0.050999,1765055843.68752,0.553,-0.372,0.243,-30.04,-56.29,-73.15,-0.172,-0.25,0.039,-54.53,32.18,-48.96
0.067999,1765055843.714208,0.553,-0.372,0.243,-30.04,-56.3,-73.16,-0.172,-0.25,0.039,-54.53,32.17,-48.96
0.085,1765055843.744684,0.553,-0.372,0.243,-30.04,-56.3,-73.16,-0.172,-0.25,0.039,-54.53,32.17,-48.97
0.101998,1765055843.7457669,0.553,-0.372,0.243,-30.04,-56.31,-73.17,-0.172,-0.25,0.039,-54.53,32.17,-48.97
0.118998,1765055843.77392,0.553,-0.372,0.243,-30.04,-56.31,-73.17,-0.172,-0.25,0.039,-54.53,32.17,-48.97
0.135999,1765055843.7762969,0.553,-0.372,0.243,-30.04,-56.32,-73.18,-0.172,-0.25,0.039,-54.53,32.16,-48.98
0.152999,1765055843.805263,0.553,-0.372,0.243,-30.03,-56.32,-73.18,-0.172,-0.25,0.039,-54.53,32.16,-48.98
0.169998,1765055843.8060422,0.553,-0.372,0.243,-30.03,-56.33,-73.18,-0.172,-0.25,0.039,-54.53,32.16,-48.98
0.186998,1765055843.8344939,0.553,-0.372,0.243,-30.03,-56.33,-73.19,-0.172,-0.25,0.039,-54.53,32.16,-48.99
0.203999,1765055843.893486,0.553,-0.372,0.243,-30.03,-56.34,-73.19,-0.172,-0.25,0.039,-54.53,32.16,-48.99
0.220997,1765055843.894349,0.553,-0.372,0.243,-30.03,-56.34,-73.2,-0.172,-0.25,0.039,-54.53,32.15,-48.99
0.238052,1765055843.922884,0.553,-0.372,0.243,-30.03,-56.35,-73.2,-0.172,-0.25,0.039,-54.53,32.15,-49.0
0.255001,1765055843.926027,0.553,-0.372,0.243,-30.02,-56.35,-73.21,-0.172,-0.25,0.039,-54.53,32.15,-49.0
0.271998,1765055843.952458,0.553,-0.372,0.243,-30.02,-56.36,-73.21,-0.172,-0.25,0.039,-54.53,32.15,-49.0
0.289,1765055843.954807,0.553,-0.372,0.243,-30.02,-56.36,-73.21,-0.172,-0.25,0.039,-54.53,32.15,-49.0
0.305997,1765055843.9580631,0.553,-0.372,0.243,-30.02,-56.37,-73.22,-0.172,-0.25,0.039,-54.53,32.14,-49.01
0.323,1765055843.9832242,0.553,-0.372,0.243,-30.02,-56.37,-73.22,-0.172,-0.25,0.039,-54.53,32.14,-49.01
0.339999,1765055843.985168,0.553,-0.372,0.243,-30.02,-56.38,-73.23,-0.172,-0.25,0.039,-54.53,32.14,-49.01
0.356997,1765055844.014955,0.553,-0.372,0.243,-30.02,-56.38,-73.23,-0.172,-0.25,0.039,-54.53,32.14,-49.02
0.373998,1765055844.0158029,0.553,-0.372,0.243,-30.02,-56.38,-73.24,-0.172,-0.25,0.039,-54.53,32.14,-49.02
0.391051,1765055844.0445561,0.553,-0.372,0.243,-30.01,-56.39,-73.24,-0.172,-0.25,0.039,-54.53,32.14,-49.02
0.408,1765055844.045542,0.553,-0.372,0.243,-30.01,-56.39,-73.24,-0.172,-0.25,0.039,-54.53,32.13,-49.03
0.425,1765055844.0750332,0.553,-0.372,0.243,-30.01,-56.4,-73.25,-0.172,-0.25,0.039,-54.53,32.13,-49.03
0.441997,1765055844.077593,0.553,-0.372,0.243,-30.01,-56.4,-73.25,-0.172,-0.25,0.039,-54.53,32.13,-49.03
0.458998,1765055844.134395,0.553,-0.372,0.243,-30.01,-56.4,-73.26,-0.172,-0.25,0.039,-54.53,32.13,-49.04
0.475999,1765055844.134721,0.553,-0.372,0.243,-30.01,-56.41,-73.26,-0.172,-0.25,0.039,-54.53,32.13,-49.04
0.493001,1765055844.137621,0.553,-0.372,0.243,-30.01,-56.41,-73.27,-0.172,-0.25,0.039,-54.53,32.13,-49.04
0.51005,1765055844.197113,0.553,-0.372,0.243,-30.01,-56.41,-73.27,-0.172,-0.25,0.039,-54.53,32.12,-49.05
0.526999,1765055844.19741,0.553,-0.372,0.243,-30.0,-56.42,-73.27,-0.172,-0.25,0.039,-54.53,32.12,-49.05
0.543999,1765055844.224274,0.553,-0.372,0.243,-30.0,-56.42,-73.28,-0.172,-0.25,0.039,-54.53,32.12,-49.05
0.561,1765055844.2262359,0.553,-0.372,0.243,-30.0,-56.42,-73.28,-0.172,-0.25,0.039,-54.53,32.12,-49.06
0.578,1765055844.227243,0.553,-0.372,0.243,-30.0,-56.43,-73.29,-0.172,-0.25,0.039,-54.53,32.12,-49.06
0.594997,1765055844.283983,0.553,-0.372,0.243,-30.0,-56.43,-73.29,-0.172,-0.25,0.039,-54.53,32.12,-49.06
0.611999,1765055844.2867,0.553,-0.372,0.243,-30.0,-56.43,-73.3,-0.172,-0.25,0.039,-54.53,32.12,-49.07
0.628998,1765055844.286913,0.553,-0.372,0.243,-30.0,-56.44,-73.3,-0.172,-0.25,0.039,-54.53,32.12,-49.07
0.646,1765055844.314687,0.553,-0.372,0.243,-30.0,-56.44,-73.3,-0.172,-0.25,0.039,-54.53,32.11,-49.07
0.663051,1765055844.315978,0.553,-0.372,0.243,-30.0,-56.44,-73.31,-0.172,-0.25,0.039,-54.53,32.11,-49.08
0.679997,1765055844.3441222,0.553,-0.372,0.243,-30.0,-56.45,-73.31,-0.172,-0.25,0.039,-54.53,32.11,-49.08
0.697001,1765055844.344438,0.553,-0.372,0.243,-29.99,-56.45,-73.32,-0.172,-0.25,0.039,-54.53,32.11,-49.08
0.713997,1765055844.403604,0.553,-0.372,0.243,-29.99,-56.45,-73.32,-0.172,-0.25,0.039,-54.53,32.11,-49.08
0.730999,1765055844.4048388,0.553,-0.372,0.243,-29.99,-56.45,-73.33,-0.172,-0.25,0.039,-54.53,32.11,-49.09
0.748052,1765055844.40712,0.553,-0.372,0.243,-29.99,-56.46,-73.33,-0.172,-0.25,0.039,-54.53,32.11,-49.09
0.765001,1765055844.433481,0.553,-0.372,0.243,-29.99,-56.46,-73.33,-0.172,-0.25,0.039,-54.53,32.11,-49.09
0.782,1765055844.436367,0.553,-0.372,0.243,-29.99,-56.46,-73.34,-0.172,-0.25,0.039,-54.53,32.11,-49.1
0.799001,1765055844.464313,0.553,-0.372,0.243,-29.99,-56.46,-73.34,-0.172,-0.25,0.039,-54.53,32.1,-49.1
0.815998,1765055844.466911,0.553,-0.372,0.243,-29.99,-56.47,-73.35,-0.172,-0.25,0.039,-54.53,32.1,-49.1
0.833,1765055844.467208,0.553,-0.372,0.243,-29.99,-56.47,-73.35,-0.172,-0.25,0.039,-54.53,32.1,-49.11
0.849998,1765055844.525156,0.553,-0.372,0.243,-29.99,-56.47,-73.36,-0.172,-0.25,0.039,-54.53,32.1,-49.11
0.866998,1765055844.528903,0.553,-0.372,0.243,-29.99,-56.47,-73.36,-0.172,-0.25,0.039,-54.52,32.1,-49.11
0.884001,1765055844.554132,0.553,-0.372,0.243,-29.99,-56.48,-73.36,-0.172,-0.25,0.039,-54.52,32.1,-49.12
0.901052,1765055844.556818,0.553,-0.372,0.243,-29.99,-56.48,-73.37,-0.172,-0.25,0.039,-54.52,32.1,-49.12
0.917997,1765055844.585172,0.553,-0.372,0.243,-29.98,-56.48,-73.37,-0.172,-0.25,0.039,-54.52,32.1,-49.12
0.935,1765055844.585803,0.553,-0.372,0.243,-29.98,-56.48,-73.38,-0.172,-0.25,0.039,-54.52,32.1,-49.13
0.951997,1765055844.615176,0.553,-0.372,0.243,-29.98,-56.48,-73.38,-0.172,-0.25,0.039,-54.52,32.1,-49.13
0.969001,1765055844.615763,0.553,-0.372,0.243,-29.98,-56.49,-73.39,-0.172,-0.25,0.039,-54.52,32.1,-49.13
0.985998,1765055844.645866,0.553,-0.372,0.243,-29.98,-56.49,-73.39,-0.172,-0.25,0.039,-54.52,32.09,-49.14
1.002997,1765055844.647435,0.553,-0.372,0.243,-29.98,-56.49,-73.39,-0.172,-0.25,0.039,-54.52,32.09,-49.14
1.019999,1765055844.6769228,0.553,-0.372,0.243,-29.98,-56.49,-73.4,-0.172,-0.25,0.039,-54.52,32.09,-49.14
1.036999,1765055844.677214,0.553,-0.372,0.243,-29.98,-56.49,-73.4,-0.172,-0.25,0.039,-54.52,32.09,-49.15
1.053999,1765055844.705132,0.553,-0.372,0.243,-29.98,-56.5,-73.41,-0.172,-0.25,0.039,-54.52,32.09,-49.15
1.070997,1765055844.705753,0.553,-0.372,0.243,-29.98,-56.5,-73.41,-0.172,-0.25,0.039,-54.52,32.09,-49.15
1.087998,1765055844.734957,0.553,-0.372,0.243,-29.98,-56.5,-73.42,-0.172,-0.25,0.039,-54.52,32.09,-49.16
1.104998,1765055844.7676091,0.553,-0.372,0.243,-29.98,-56.5,-73.42,-0.172,-0.25,0.039,-54.52,32.09,-49.16
1.121998,1765055844.768176,0.553,-0.372,0.243,-29.98,-56.5,-73.42,-0.172,-0.25,0.039,-54.52,32.09,-49.16
1.139,1765055844.79477,0.553,-0.372,0.243,-29.98,-56.5,-73.43,-0.172,-0.25,0.039,-54.52,32.09,-49.16
1.155997,1765055844.7972732,0.553,-0.372,0.243,-29.98,-56.51,-73.43,-0.172,-0.25,0.039,-54.52,32.09,-49.17
1.172998,1765055844.854199,0.553,-0.372,0.243,-29.98,-56.51,-73.44,-0.172,-0.25,0.039,-54.52,32.09,-49.17
1.19,1765055844.854437,0.553,-0.372,0.243,-29.98,-56.51,-73.44,-0.172,-0.25,0.039,-54.52,32.09,-49.17
1.207,1765055844.857815,0.553,-0.372,0.243,-29.98,-56.51,-73.45,-0.172,-0.25,0.039,-54.52,32.09,-49.18
1.223997,1765055844.884546,0.553,-0.372,0.243,-29.97,-56.51,-73.45,-0.172,-0.25,0.039,-54.52,32.08,-49.18
1.240998,1765055844.88583,0.553,-0.372,0.243,-29.97,-56.51,-73.45,-0.172,-0.25,0.039,-54.52,32.08,-49.18
1.257997,1765055844.91459,0.553,-0.372,0.243,-29.97,-56.52,-73.46,-0.172,-0.25,0.039,-54.52,32.08,-49.19
1.275,1765055844.91571,0.553,-0.372,0.243,-29.97,-56.52,-73.46,-0.172,-0.25,0.039,-54.52,32.08,-49.19
1.292001,1765055844.94519,0.553,-0.372,0.243,-29.97,-56.52,-73.47,-0.172,-0.25,0.039,-54.52,32.08,-49.19
1.308998,1765055844.947207,0.553,-0.372,0.243,-29.97,-56.52,-73.47,-0.172,-0.25,0.039,-54.52,32.08,-49.2
1.325997,1765055845.003356,0.553,-0.372,0.243,-29.97,-56.52,-73.48,-0.172,-0.25,0.039,-54.52,32.08,-49.2
1.342999,1765055845.004659,0.553,-0.372,0.243,-29.97,-56.52,-73.48,-0.172,-0.25,0.039,-54.52,32.08,-49.2
1.36,1765055845.0074549,0.553,-0.372,0.243,-29.97,-56.52,-73.48,-0.172,-0.25,0.039,-54.52,32.08,-49.21
1.377001,1765055845.037473,0.553,-0.372,0.243,-29.97,-56.52,-73.49,-0.172,-0.25,0.039,-54.52,32.08,-49.21
1.393999,1765055845.0375528,0.553,-0.372,0.243,-29.97,-56.53,-73.49,-0.172,-0.25,0.039,-54.52,32.08,-49.21
1.41105,1765055845.064661,0.553,-0.372,0.243,-29.97,-56.53,-73.5,-0.172,-0.25,0.039,-54.52,32.08,-49.22
1.428,1765055845.068096,0.553,-0.372,0.243,-29.97,-56.53,-73.5,-0.172,-0.25,0.039,-54.52,32.08,-49.22
1.444997,1765055845.095702,0.553,-0.372,0.243,-29.97,-56.53,-73.51,-0.172,-0.25,0.039,-54.52,32.08,-49.22
1.462,1765055845.097832,0.553,-0.372,0.243,-29.97,-56.53,-73.51,-0.172,-0.25,0.039,-54.52,32.08,-49.23
1.478998,1765055845.1240551,0.553,-0.372,0.243,-29.97,-56.53,-73.51,-0.172,-0.25,0.039,-54.52,32.08,-49.23
1.496,1765055845.155245,0.553,-0.372,0.243,-29.97,-56.53,-73.52,-0.172,-0.25,0.039,-54.52,32.08,-49.23
1.513,1765055845.156672,0.553,-0.372,0.243,-29.97,-56.53,-73.52,-0.172,-0.25,0.039,-54.52,32.08,-49.24
1.529999,1765055845.1869838,0.553,-0.372,0.243,-29.97,-56.53,-73.53,-0.172,-0.25,0.039,-54.52,32.08,-49.24
1.547,1765055845.1873689,0.553,-0.372,0.243,-29.97,-56.54,-73.53,-0.172,-0.25,0.039,-54.52,32.07,-49.24
1.564,1765055845.214547,0.553,-0.372,0.243,-29.97,-56.54,-73.54,-0.172,-0.25,0.039,-54.52,32.07,-49.24
1.580999,1765055845.2153332,0.553,-0.372,0.243,-29.97,-56.54,-73.54,-0.172,-0.25,0.039,-54.52,32.07,-49.25
1.598,1765055845.2459142,0.553,-0.372,0.243,-29.97,-56.54,-73.54,-0.172,-0.25,0.039,-54.52,32.07,-49.25
1.614998,1765055845.274283,0.553,-0.372,0.243,-29.97,-56.54,-73.55,-0.172,-0.25,0.039,-54.52,32.07,-49.25
1.632,1765055845.275378,0.553,-0.372,0.243,-29.97,-56.54,-73.55,-0.172,-0.25,0.039,-54.52,32.07,-49.26
1.649001,1765055845.306277,0.553,-0.372,0.243,-29.97,-56.54,-73.56,-0.172,-0.25,0.039,-54.52,32.07,-49.26
1.666001,1765055845.3065379,0.553,-0.372,0.243,-29.97,-56.54,-73.56,-0.172,-0.25,0.039,-54.52,32.07,-49.26
1.682999,1765055845.334835,0.553,-0.372,0.243,-29.97,-56.54,-73.57,-0.172,-0.25,0.039,-54.52,32.07,-49.27
1.700001,1765055845.3384771,0.553,-0.372,0.243,-29.96,-56.54,-73.57,-0.172,-0.25,0.039,-54.52,32.07,-49.27
1.717,1765055845.36467,0.553,-0.372,0.243,-29.96,-56.54,-73.57,-0.172,-0.25,0.039,-54.52,32.07,-49.27
1.734001,1765055845.423535,0.553,-0.372,0.243,-29.96,-56.55,-73.58,-0.172,-0.25,0.039,-54.52,32.07,-49.28
1.751001,1765055845.426903,0.553,-0.372,0.243,-29.96,-56.55,-73.58,-0.172,-0.25,0.039,-54.52,32.07,-49.28
1.76805,1765055845.4271748,0.553,-0.372,0.243,-29.96,-56.55,-73.59,-0.172,-0.25,0.039,-54.52,32.07,-49.28
1.784999,1765055845.453563,0.553,-0.372,0.243,-29.96,-56.55,-73.59,-0.172,-0.25,0.039,-54.52,32.07,-49.29
1.801999,1765055845.486269,0.553,-0.372,0.243,-29.96,-56.55,-73.6,-0.172,-0.25,0.039,-54.52,32.07,-49.29
1.818997,1765055845.486576,0.553,-0.372,0.243,-29.96,-56.55,-73.6,-0.172,-0.25,0.039,-54.52,32.07,-49.29
1.836001,1765055845.513534,0.553,-0.372,0.243,-29.96,-56.55,-73.6,-0.172,-0.25,0.039,-54.52,32.07,-49.3
1.853001,1765055845.515317,0.553,-0.372,0.243,-29.96,-56.55,-73.61,-0.172,-0.25,0.039,-54.52,32.07,-49.3
1.869999,1765055845.5174131,0.553,-0.372,0.243,-29.96,-56.55,-73.61,-0.172,-0.25,0.039,-54.52,32.07,-49.3
1.886997,1765055845.5443032,0.553,-0.372,0.243,-29.96,-56.55,-73.62,-0.172,-0.25,0.039,-54.52,32.07,-49.31
1.903999,1765055845.5473201,0.553,-0.372,0.243,-29.96,-56.55,-73.62,-0.172,-0.25,0.039,-54.52,32.07,-49.31
1.92105,1765055845.5744371,0.553,-0.372,0.243,-29.96,-56.55,-73.63,-0.172,-0.25,0.039,-54.52,32.07,-49.31
1.938,1765055845.575381,0.553,-0.372,0.243,-29.96,-56.55,-73.63,-0.172,-0.25,0.039,-54.52,32.07,-49.32
1.955,1765055845.605325,0.553,-0.372,0.243,-29.96,-56.55,-73.63,-0.172,-0.25,0.039,-54.52,32.07,-49.32
1.971999,1765055845.635206,0.553,-0.372,0.243,-29.96,-56.56,-73.64,-0.172,-0.25,0.039,-54.52,32.07,-49.32
1.988998,1765055845.638089,0.553,-0.372,0.243,-29.96,-56.56,-73.64,-0.172,-0.25,0.039,-54.52,32.07,-49.32
2.005997,1765055845.666181,0.553,-0.372,0.243,-29.96,-56.56,-73.65,-0.172,-0.25,0.039,-54.52,32.07,-49.33
2.022998,1765055845.666265,0.553,-0.372,0.243,-29.96,-56.56,-73.65,-0.172,-0.25,0.039,-54.52,32.07,-49.33
2.04,1765055845.6943731,0.553,-0.372,0.243,-29.96,-56.56,-73.66,-0.172,-0.25,0.039,-54.52,32.07,-49.33
2.056999,1765055845.697377,0.553,-0.372,0.243,-29.96,-56.56,-73.66,-0.172,-0.25,0.039,-54.52,32.07,-49.34
2.073997,1765055845.75631,0.553,-0.372,0.243,-29.96,-56.56,-73.66,-0.172,-0.25,0.039,-54.52,32.07,-49.34
2.090997,1765055845.7567859,0.553,-0.372,0.243,-29.96,-56.56,-73.67,-0.172,-0.25,0.039,-54.52,32.06,-49.34
2.107998,1765055845.785215,0.553,-0.372,0.243,-29.96,-56.56,-73.67,-0.172,-0.25,0.039,-54.52,32.06,-49.35
2.124998,1765055845.7862241,0.553,-0.372,0.243,-29.96,-56.56,-73.68,-0.172,-0.25,0.039,-54.52,32.06,-49.35
2.141999,1765055845.787622,0.553,-0.372,0.243,-29.96,-56.56,-73.68,-0.172,-0.25,0.039,-54.52,32.06,-49.35
2.159049,1765055845.818055,0.553,-0.372,0.243,-29.96,-56.56,-73.69,-0.172,-0.25,0.039,-54.52,32.06,-49.36
2.175999,1765055845.8181581,0.553,-0.372,0.243,-29.96,-56.56,-73.69,-0.172,-0.25,0.039,-54.52,32.06,-49.36
2.193,1765055845.845247,0.553,-0.372,0.243,-29.96,-56.56,-73.69,-0.172,-0.25,0.039,-54.52,32.06,-49.36
2.21,1765055845.873663,0.553,-0.372,0.243,-29.96,-56.56,-73.7,-0.172,-0.25,0.039,-54.52,32.06,-49.37
2.226997,1765055845.8751638,0.553,-0.372,0.243,-29.96,-56.56,-73.7,-0.172,-0.25,0.039,-54.52,32.06,-49.37
2.244001,1765055845.9047449,0.553,-0.372,0.243,-29.96,-56.56,-73.71,-0.172,-0.25,0.039,-54.52,32.06,-49.37
2.260999,1765055845.9074078,0.553,-0.372,0.243,-29.96,-56.56,-73.71,-0.172,-0.25,0.039,-54.52,32.06,-49.38
2.278052,1765055845.934931,0.553,-0.372,0.243,-29.96,-56.56,-73.72,-0.172,-0.25,0.039,-54.52,32.06,-49.38
2.294998,1765055845.935968,0.553,-0.372,0.243,-29.96,-56.57,-73.72,-0.172,-0.25,0.039,-54.52,32.06,-49.38
2.311997,1765055845.9651682,0.553,-0.372,0.243,-29.96,-56.57,-73.72,-0.172,-0.25,0.039,-54.52,32.06,-49.39
2.328999,1765055845.9660108,0.553,-0.372,0.243,-29.96,-56.57,-73.73,-0.172,-0.25,0.039,-54.52,32.06,-49.39
2.345998,1765055845.994006,0.553,-0.372,0.243,-29.96,-56.57,-73.73,-0.172,-0.25,0.039,-54.52,32.06,-49.39
2.362998,1765055846.0263941,0.553,-0.372,0.243,-29.96,-56.57,-73.74,-0.172,-0.25,0.039,-54.52,32.06,-49.39
2.379998,1765055846.026931,0.553,-0.372,0.243,-29.96,-56.57,-73.74,-0.172,-0.25,0.039,-54.52,32.06,-49.4
2.396998,1765055846.054641,0.553,-0.372,0.243,-29.96,-56.57,-73.75,-0.172,-0.25,0.039,-54.52,32.06,-49.4
2.413997,1765055846.057255,0.553,-0.372,0.243,-29.96,-56.57,-73.75,-0.172,-0.25,0.039,-54.52,32.06,-49.4
2.431052,1765055846.085469,0.553,-0.372,0.243,-29.96,-56.57,-73.75,-0.172,-0.25,0.039,-54.52,32.06,-49.41
2.447998,1765055846.0857852,0.553,-0.372,0.243,-29.96,-56.57,-73.76,-0.172,-0.25,0.039,-54.52,32.06,-49.41
2.464999,1765055846.1166542,0.553,-0.372,0.243,-29.96,-56.57,-73.76,-0.172,-0.25,0.039,-54.52,32.06,-49.41
2.481998,1765055846.117171,0.553,-0.372,0.243,-29.96,-56.57,-73.77,-0.172,-0.25,0.039,-54.52,32.06,-49.42
2.499001,1765055846.144128,0.553,-0.372,0.243,-29.96,-56.57,-73.77,-0.172,-0.25,0.039,-54.52,32.06,-49.42
2.516003,1765055846.177334,0.553,-0.372,0.243,-29.96,-56.57,-73.78,-0.172,-0.25,0.039,-54.52,32.06,-49.42
2.533006,1765055846.177726,0.553,-0.372,0.243,-29.96,-56.57,-73.78,-0.172,-0.25,0.039,-54.52,32.06,-49.43
2.550005,1765055846.204895,0.553,-0.372,0.243,-29.96,-56.57,-73.78,-0.172,-0.25,0.039,-54.52,32.06,-49.43
2.567004,1765055846.207293,0.553,-0.372,0.243,-29.96,-56.57,-73.79,-0.172,-0.25,0.039,-54.52,32.06,-49.43
2.584005,1765055846.234999,0.553,-0.372,0.243,-29.96,-56.57,-73.79,-0.172,-0.25,0.039,-54.52,32.06,-49.44
2.601006,1765055846.236854,0.553,-0.372,0.243,-29.96,-56.57,-73.8,-0.172,-0.25,0.039,-54.52,32.06,-49.44
2.618005,1765055846.264247,0.553,-0.372,0.243,-29.96,-56.57,-73.8,-0.172,-0.25,0.039,-54.52,32.06,-49.44
2.635007,1765055846.29437,0.553,-0.372,0.243,-29.96,-56.57,-73.81,-0.172,-0.25,0.039,-54.52,32.06,-49.45
2.652005,1765055846.3249888,0.553,-0.372,0.243,-29.96,-56.57,-73.81,-0.172,-0.25,0.039,-54.52,32.06,-49.45
2.669059,1765055846.328948,0.553,-0.372,0.243,-29.96,-56.57,-73.81,-0.172,-0.25,0.039,-54.52,32.06,-49.45
2.686006,1765055846.382873,0.553,-0.372,0.243,-29.96,-56.57,-73.82,-0.172,-0.25,0.039,-54.52,32.06,-49.46
2.703007,1765055846.384421,0.553,-0.372,0.243,-29.96,-56.57,-73.82,-0.172,-0.25,0.039,-54.52,32.06,-49.46
2.720007,1765055846.3874319,0.553,-0.372,0.243,-29.96,-56.57,-73.83,-0.172,-0.25,0.039,-54.52,32.06,-49.46
2.737007,1765055846.413954,0.553,-0.372,0.243,-29.96,-56.57,-73.83,-0.172,-0.25,0.039,-54.52,32.06,-49.47
2.754006,1765055846.41588,0.553,-0.372,0.243,-29.96,-56.57,-73.84,-0.172,-0.25,0.039,-54.52,32.06,-49.47
2.771007,1765055846.443062,0.553,-0.372,0.243,-29.96,-56.57,-73.84,-0.172,-0.25,0.039,-54.52,32.06,-49.47
2.788003,1765055846.4446568,0.553,-0.372,0.243,-29.96,-56.57,-73.84,-0.172,-0.25,0.039,-54.52,32.06,-49.47
2.805006,1765055846.446029,0.553,-0.372,0.243,-29.96,-56.57,-73.85,-0.172,-0.25,0.039,-54.52,32.06,-49.48
2.822007,1765055846.4761028,0.553,-0.372,0.243,-29.96,-56.57,-73.85,-0.172,-0.25,0.039,-54.52,32.06,-49.48
2.839007,1765055846.476244,0.553,-0.372,0.243,-29.96,-56.58,-73.86,-0.172,-0.25,0.039,-54.52,32.06,-49.48
2.856005,1765055846.5035179,0.553,-0.372,0.243,-29.96,-56.58,-73.86,-0.172,-0.25,0.039,-54.52,32.06,-49.49
2.873007,1765055846.5349262,0.553,-0.372,0.243,-29.96,-56.58,-73.87,-0.172,-0.25,0.039,-54.52,32.06,-49.49
2.890005,1765055846.536083,0.553,-0.372,0.243,-29.96,-56.58,-73.87,-0.172,-0.25,0.039,-54.52,32.06,-49.49
2.907007,1765055846.564736,0.553,-0.372,0.243,-29.95,-56.58,-73.87,-0.172,-0.25,0.039,-54.52,32.06,-49.5
2.924007,1765055846.566593,0.553,-0.372,0.243,-29.95,-56.58,-73.88,-0.172,-0.25,0.039,-54.52,32.06,-49.5
2.941059,1765055846.594718,0.553,-0.372,0.243,-29.95,-56.58,-73.88,-0.172,-0.25,0.039,-54.52,32.06,-49.5
2.958007,1765055846.595832,0.553,-0.372,0.243,-29.95,-56.58,-73.89,-0.172,-0.25,0.039,-54.52,32.06,-49.51
2.975005,1765055846.6516979,0.553,-0.372,0.243,-29.95,-56.58,-73.89,-0.172,-0.25,0.039,-54.52,32.06,-49.51
2.992007,1765055846.654159,0.553,-0.372,0.243,-29.95,-56.58,-73.9,-0.172,-0.25,0.039,-54.52,32.06,-49.51
3.009003,1765055846.6570702,0.553,-0.372,0.243,-29.95,-56.58,-73.9,-0.172,-0.25,0.039,-54.52,32.06,-49.52
3.026007,1765055846.685477,0.553,-0.372,0.243,-29.95,-56.58,-73.9,-0.172,-0.25,0.039,-54.52,32.06,-49.52
3.043007,1765055846.685822,0.553,-0.372,0.243,-29.95,-56.58,-73.91,-0.172,-0.25,0.039,-54.52,32.06,-49.52
3.060055,1765055846.714866,0.553,-0.372,0.243,-29.95,-56.58,-73.91,-0.172,-0.25,0.039,-54.52,32.06,-49.53
3.077007,1765055846.7179708,0.553,-0.372,0.243,-29.95,-56.58,-73.92,-0.172,-0.25,0.039,-54.52,32.06,-49.53
3.094005,1765055846.7444339,0.553,-0.372,0.243,-29.95,-56.58,-73.92,-0.172,-0.25,0.039,-54.52,32.06,-49.53
3.111007,1765055846.7452018,0.553,-0.372,0.243,-29.95,-56.58,-73.93,-0.172,-0.25,0.039,-54.52,32.06,-49.54
3.128007,1765055846.774592,0.553,-0.372,0.243,-29.95,-56.58,-73.93,-0.172,-0.25,0.039,-54.52,32.06,-49.54
3.145008,1765055846.804645,0.553,-0.372,0.243,-29.95,-56.58,-73.93,-0.172,-0.25,0.039,-54.52,32.06,-49.54
3.162005,1765055846.805272,0.553,-0.372,0.243,-29.95,-56.58,-73.94,-0.172,-0.25,0.039,-54.52,32.06,-49.55
3.179055,1765055846.83763,0.553,-0.372,0.243,-29.95,-56.58,-73.94,-0.172,-0.25,0.039,-54.52,32.06,-49.55
3.196005,1765055846.837931,0.553,-0.372,0.243,-29.95,-56.58,-73.95,-0.172,-0.25,0.039,-54.52,32.06,-49.55
3.213007,1765055846.894968,0.553,-0.372,0.243,-29.95,-56.58,-73.95,-0.172,-0.25,0.039,-54.52,32.06,-49.55
3.230004,1765055846.8974621,0.553,-0.372,0.243,-29.95,-56.58,-73.96,-0.172,-0.25,0.039,-54.52,32.06,-49.56
3.247007,1765055846.953398,0.553,-0.372,0.243,-29.95,-56.58,-73.96,-0.172,-0.25,0.039,-54.52,32.06,-49.56
3.264005,1765055846.9547572,0.553,-0.372,0.243,-29.95,-56.58,-73.96,-0.172,-0.25,0.039,-54.52,32.06,-49.56
3.281007,1765055846.95745,0.553,-0.372,0.243,-29.95,-56.58,-73.97,-0.172,-0.25,0.039,-54.52,32.06,-49.57
3.298005,1765055846.985215,0.553,-0.372,0.243,-29.95,-56.58,-73.97,-0.172,-0.25,0.039,-54.52,32.06,-49.57
3.315007,1765055846.9861991,0.553,-0.372,0.243,-29.95,-56.58,-73.98,-0.172,-0.25,0.039,-54.52,32.06,-49.57
3.332007,1765055847.0135128,0.553,-0.372,0.243,-29.95,-56.58,-73.98,-0.172,-0.25,0.039,-54.52,32.06,-49.58
3.349006,1765055847.014569,0.553,-0.372,0.243,-29.95,-56.58,-73.99,-0.172,-0.25,0.039,-54.52,32.06,-49.58
3.366006,1765055847.018435,0.553,-0.372,0.243,-29.95,-56.58,-73.99,-0.172,-0.25,0.039,-54.52,32.06,-49.58
3.383007,1765055847.0443468,0.553,-0.372,0.243,-29.95,-56.58,-73.99,-0.172,-0.25,0.039,-54.52,32.06,-49.59
3.400006,1765055847.074986,0.553,-0.372,0.243,-29.95,-56.58,-74.0,-0.172,-0.25,0.039,-54.52,32.06,-49.59
3.417008,1765055847.0771499,0.553,-0.372,0.243,-29.95,-56.58,-74.0,-0.172,-0.25,0.039,-54.52,32.06,-49.59
3.434006,1765055847.104759,0.553,-0.372,0.243,-29.95,-56.58,-74.01,-0.172,-0.25,0.039,-54.52,32.06,-49.6
3.451058,1765055847.1055412,0.553,-0.372,0.243,-29.95,-56.58,-74.01,-0.172,-0.25,0.039,-54.52,32.06,-49.6
3.468007,1765055847.107141,0.553,-0.372,0.243,-29.95,-56.58,-74.02,-0.172,-0.25,0.039,-54.52,32.06,-49.6
3.485007,1765055847.164855,0.553,-0.372,0.243,-29.95,-56.58,-74.02,-0.172,-0.25,0.039,-54.52,32.06,-49.61
3.502003,1765055847.165159,0.553,-0.372,0.243,-29.95,-56.58,-74.02,-0.172,-0.25,0.039,-54.52,32.06,-49.61
3.519004,1765055847.1691442,0.553,-0.372,0.243,-29.95,-56.58,-74.03,-0.172,-0.25,0.039,-54.52,32.06,-49.61
3.536004,1765055847.195211,0.553,-0.372,0.243,-29.95,-56.58,-74.03,-0.172,-0.25,0.039,-54.52,32.06,-49.62
3.553005,1765055847.19661,0.553,-0.372,0.243,-29.95,-56.58,-74.04,-0.172,-0.25,0.039,-54.52,32.06,-49.62
3.570055,1765055847.2256079,0.553,-0.372,0.243,-29.95,-56.58,-74.04,-0.172,-0.25,0.039,-54.52,32.06,-49.62
3.587004,1765055847.227865,0.553,-0.372,0.243,-29.95,-56.58,-74.05,-0.172,-0.25,0.039,-54.52,32.06,-49.63
3.604006,1765055847.2547011,0.553,-0.372,0.243,-29.95,-56.58,-74.05,-0.172,-0.25,0.039,-54.52,32.06,-49.63
3.621003,1765055847.255426,0.553,-0.372,0.243,-29.95,-56.58,-74.05,-0.172,-0.25,0.039,-54.52,32.06,-49.63
