time_s,accel_x,accel_y,accel_z,angle_x,angle_y,angle_z
0.0,0.112,-0.644,0.419,-58.71,-3.25,-467.46
0.012167,0.164,-0.559,0.389,-58.59,-3.43,-467.47
0.024363,0.163,-0.571,0.387,-58.55,-3.43,-467.49
0.036578,0.140,-0.609,0.409,-58.57,-3.31,-467.50
0.048778,0.112,-0.649,0.430,-58.58,-3.21,-467.50
0.06096,0.099,-0.690,0.444,-58.58,-3.18,-467.50
0.07315,0.078,-0.732,0.452,-58.61,-3.11,-467.50
0.085329,0.063,-0.758,0.464,-58.66,-3.03,-467.50
0.097517,0.047,-0.779,0.470,-58.70,-2.96,-467.49
0.109764,0.056,-0.769,0.458,-58.76,-2.94,-467.49
0.121937,0.045,-0.778,0.466,-58.77,-2.94,-467.49
0.134115,0.045,-0.776,0.472,-58.76,-2.94,-467.49
0.146311,0.039,-0.787,0.467,-58.79,-2.90,-467.49
0.15852,0.039,-0.784,0.469,-58.81,-2.88,-467.49
0.170767,0.044,-0.772,0.469,-58.78,-2.89,-467.49
0.182952,0.046,-0.778,0.466,-58.80,-2.89,-467.49
0.195129,0.045,-0.780,0.461,-58.82,-2.89,-467.49
0.207323,0.046,-0.770,0.468,-58.83,-2.89,-467.49
0.219513,0.039,-0.779,0.465,-58.85,-2.88,-467.49
0.231688,0.049,-0.771,0.464,-58.85,-2.88,-467.49
0.24386,0.046,-0.770,0.465,-58.84,-2.88,-467.49
0.256019,0.046,-0.773,0.464,-58.86,-2.89,-467.49
0.26822,0.047,-0.773,0.464,-58.86,-2.89,-467.49
0.2804,0.041,-0.766,0.467,-58.84,-2.90,-467.49
0.292631,0.038,-0.777,0.462,-58.85,-2.89,-467.49
0.304869,0.044,-0.772,0.460,-58.87,-2.88,-467.49
0.317025,0.045,-0.768,0.458,-58.88,-2.87,-467.49
0.329232,0.048,-0.769,0.460,-58.89,-2.87,-467.49
0.34142,0.044,-0.778,0.464,-58.88,-2.86,-467.49
0.35364,0.046,-0.770,0.468,-58.86,-2.88,-467.50
0.365835,0.049,-0.773,0.465,-58.86,-2.90,-467.50
0.378027,0.046,-0.770,0.463,-58.86,-2.89,-467.50
0.390182,0.048,-0.767,0.464,-58.84,-2.89,-467.50
0.402375,0.050,-0.765,0.463,-58.85,-2.89,-467.50
0.41459,0.045,-0.774,0.464,-58.88,-2.88,-467.50
0.426826,0.047,-0.769,0.466,-58.87,-2.89,-467.50
0.439,0.043,-0.769,0.463,-58.88,-2.88,-467.50
0.451195,0.043,-0.777,0.459,-58.92,-2.87,-467.50
0.463395,0.043,-0.764,0.462,-58.90,-2.86,-467.51
0.475577,0.045,-0.770,0.461,-58.90,-2.87,-467.51
0.487732,0.044,-0.776,0.462,-58.92,-2.86,-467.51
0.499909,0.045,-0.766,0.463,-58.90,-2.87,-467.51
0.512079,0.047,-0.771,0.468,-58.89,-2.86,-467.51
0.524271,0.044,-0.771,0.461,-58.92,-2.85,-467.51
0.536459,0.044,-0.766,0.461,-58.89,-2.85,-467.51
0.54868,0.046,-0.768,0.460,-58.89,-2.85,-467.51
0.56085,0.048,-0.779,0.459,-58.92,-2.83,-467.51
0.573029,0.049,-0.765,0.468,-58.89,-2.84,-467.51
0.585198,0.044,-0.775,0.463,-58.90,-2.84,-467.51
0.597378,0.047,-0.774,0.461,-58.92,-2.84,-467.51
0.609537,0.048,-0.773,0.459,-58.92,-2.86,-467.52
0.621752,0.041,-0.771,0.466,-58.91,-2.86,-467.52
0.633932,0.042,-0.774,0.462,-58.92,-2.85,-467.52
0.646089,0.046,-0.766,0.465,-58.89,-2.86,-467.52
0.658305,0.047,-0.775,0.457,-58.92,-2.86,-467.52
0.670514,0.047,-0.767,0.465,-58.92,-2.86,-467.52
0.682783,0.048,-0.771,0.463,-58.91,-2.85,-467.52
0.694952,0.044,-0.774,0.465,-58.90,-2.85,-467.52
0.707106,0.043,-0.775,0.462,-58.92,-2.84,-467.53
0.719301,0.047,-0.768,0.464,-58.90,-2.84,-467.52
0.73156,0.047,-0.772,0.461,-58.91,-2.83,-467.53
0.743779,0.039,-0.776,0.464,-58.91,-2.83,-467.52
0.755979,0.046,-0.769,0.463,-58.92,-2.83,-467.53
0.768124,0.046,-0.764,0.464,-58.91,-2.82,-467.53
0.780318,0.048,-0.775,0.458,-58.92,-2.83,-467.53
0.792542,0.046,-0.764,0.465,-58.90,-2.84,-467.53
0.804813,0.046,-0.771,0.461,-58.91,-2.85,-467.53
0.816981,0.042,-0.773,0.457,-58.91,-2.84,-467.53
0.829125,0.048,-0.774,0.468,-58.90,-2.84,-467.53
0.841309,0.042,-0.770,0.470,-58.87,-2.86,-467.53
0.853515,0.046,-0.773,0.463,-58.89,-2.85,-467.54
0.865747,0.044,-0.771,0.466,-58.87,-2.84,-467.54
0.877925,0.048,-0.775,0.464,-58.88,-2.84,-467.54
0.890108,0.044,-0.773,0.463,-58.88,-2.84,-467.54
0.902279,0.043,-0.771,0.458,-58.88,-2.84,-467.54
0.914488,0.045,-0.767,0.462,-58.87,-2.85,-467.54
0.926678,0.045,-0.771,0.460,-58.89,-2.85,-467.54
0.938834,0.048,-0.764,0.461,-58.88,-2.85,-467.54
0.95102,0.049,-0.769,0.461,-58.88,-2.85,-467.54
0.963166,0.048,-0.774,0.462,-58.90,-2.85,-467.54
0.975356,0.046,-0.774,0.465,-58.90,-2.85,-467.54
0.987584,0.045,-0.767,0.466,-58.89,-2.86,-467.54
0.999854,0.044,-0.772,0.459,-58.91,-2.85,-467.54
1.01202,0.048,-0.766,0.464,-58.92,-2.85,-467.54
1.024189,0.050,-0.767,0.465,-58.90,-2.86,-467.54
1.03639,0.040,-0.777,0.464,-58.91,-2.86,-467.54
1.048596,0.042,-0.775,0.463,-58.91,-2.85,-467.55
1.060846,0.044,-0.767,0.464,-58.88,-2.85,-467.54
1.073039,0.041,-0.779,0.465,-58.88,-2.83,-467.55
1.085189,0.043,-0.777,0.466,-58.88,-2.83,-467.55
1.097409,0.041,-0.769,0.461,-58.88,-2.83,-467.55
1.109631,0.042,-0.778,0.465,-58.89,-2.82,-467.55
1.12186,0.043,-0.778,0.466,-58.90,-2.82,-467.55
1.13405,0.042,-0.775,0.465,-58.88,-2.84,-467.55
1.146204,0.043,-0.776,0.466,-58.89,-2.84,-467.55
1.158409,0.041,-0.773,0.469,-58.87,-2.84,-467.55
1.170608,0.045,-0.770,0.467,-58.86,-2.84,-467.55
1.182856,0.040,-0.772,0.466,-58.85,-2.84,-467.55
1.195061,0.048,-0.770,0.465,-58.85,-2.86,-467.55
1.207217,0.047,-0.771,0.466,-58.84,-2.87,-467.55
1.219416,0.045,-0.776,0.461,-58.87,-2.86,-467.55
1.231613,0.048,-0.769,0.462,-58.87,-2.86,-467.55
1.243839,0.048,-0.766,0.461,-58.87,-2.87,-467.55
1.256032,0.043,-0.776,0.464,-58.88,-2.87,-467.55
1.268227,0.043,-0.771,0.469,-58.86,-2.87,-467.56
1.280395,0.044,-0.774,0.465,-58.85,-2.87,-467.56
1.29257,0.042,-0.777,0.460,-58.88,-2.87,-467.56
1.304755,0.046,-0.773,0.466,-58.87,-2.87,-467.56
1.316927,0.047,-0.770,0.463,-58.88,-2.88,-467.56
1.329099,0.044,-0.773,0.462,-58.90,-2.87,-467.56
1.341249,0.046,-0.774,0.464,-58.90,-2.87,-467.56
1.35346,0.047,-0.767,0.461,-58.88,-2.88,-467.56
1.365653,0.044,-0.773,0.461,-58.91,-2.87,-467.56
1.377868,0.044,-0.774,0.467,-58.91,-2.86,-467.56
1.390043,0.046,-0.771,0.461,-58.90,-2.86,-467.56
1.402223,0.047,-0.774,0.460,-58.90,-2.86,-467.56
1.414397,0.049,-0.772,0.465,-58.90,-2.87,-467.57
1.426596,0.044,-0.768,0.467,-58.87,-2.88,-467.57
1.438789,0.046,-0.772,0.463,-58.88,-2.88,-467.57
1.450961,0.045,-0.774,0.465,-58.88,-2.87,-467.57
1.463141,0.047,-0.764,0.463,-58.87,-2.87,-467.57
1.475283,0.047,-0.774,0.459,-58.88,-2.88,-467.57
1.487495,0.044,-0.775,0.462,-58.90,-2.87,-467.57
1.501902,0.046,-0.772,0.464,-58.89,-2.88,-467.57
1.514078,0.047,-0.768,0.460,-58.90,-2.88,-467.57
1.52625,0.050,-0.769,0.463,-58.90,-2.88,-467.57
1.538431,0.049,-0.770,0.466,-58.88,-2.88,-467.57
1.550617,0.032,-0.770,0.300,-59.23,-2.96,-467.63
1.562786,0.071,-0.730,0.521,-58.63,-3.28,-467.85
1.574955,0.060,-0.729,0.527,-57.78,-3.82,-467.99
1.58715,0.037,-0.778,0.401,-57.81,-4.37,-468.13
1.599303,0.075,-0.764,0.492,-57.28,-5.13,-468.34
1.611446,0.109,-0.736,0.579,-56.18,-6.04,-468.54
1.623611,0.095,-0.753,0.549,-55.49,-6.84,-468.69
1.635734,0.116,-0.759,0.545,-55.05,-7.52,-468.80
1.647975,0.122,-0.741,0.577,-54.50,-8.15,-468.82
1.660164,0.109,-0.764,0.573,-54.13,-8.41,-468.74
1.672336,0.118,-0.734,0.561,-53.90,-8.46,-468.63
1.684533,0.118,-0.724,0.559,-53.67,-8.35,-468.52
1.69675,0.115,-0.743,0.533,-53.69,-8.14,-468.38
1.708996,0.103,-0.740,0.552,-53.72,-7.87,-468.23
1.721142,0.142,-0.734,0.596,-53.64,-7.63,-468.10
1.733307,0.062,-0.746,0.512,-53.96,-7.25,-468.03
1.745493,0.073,-0.724,0.617,-53.86,-6.84,-467.99
1.757663,0.112,-0.738,0.567,-54.24,-6.57,-467.92
1.769846,0.176,-0.855,0.421,-55.56,-6.36,-467.73
1.782008,0.115,-0.682,0.485,-57.58,-5.54,-467.65
1.794207,0.058,-0.788,0.350,-59.01,-4.69,-467.57
1.806356,0.056,-0.841,0.376,-59.42,-3.90,-467.48
1.818542,0.054,-0.794,0.356,-61.18,-2.96,-467.49
1.830736,0.029,-0.784,0.428,-62.03,-1.89,-467.48
1.84297,-0.006,-0.832,0.410,-62.89,-0.52,-467.32
1.85515,-0.038,-0.961,0.570,-63.52,0.89,-467.12
1.867355,-0.020,-0.923,0.607,-63.17,1.50,-467.23
1.879509,-0.042,-0.875,0.344,-63.52,1.67,-467.43
1.891664,-0.048,-0.915,0.358,-64.21,1.88,-467.67
1.903835,-0.023,-0.848,0.351,-64.39,1.84,-468.01
1.915967,0.023,-0.954,0.372,-64.49,1.51,-468.37
1.928137,0.104,-0.975,0.394,-64.45,0.86,-468.92
1.940278,0.205,-0.998,0.375,-64.28,-0.24,-469.61
1.952425,0.221,-1.019,0.291,-64.31,-1.40,-470.43
1.964558,0.170,-0.982,0.254,-64.61,-2.10,-471.41
1.976742,0.100,-0.952,0.315,-64.82,-2.19,-472.46
1.988922,0.103,-0.916,0.390,-64.63,-1.99,-473.62
2.001092,0.120,-0.980,0.521,-63.90,-1.83,-474.70
2.013252,0.119,-0.996,0.548,-62.96,-1.84,-475.84
2.025419,0.121,-0.980,0.514,-62.11,-2.01,-477.11
2.037627,0.111,-0.966,0.606,-61.01,-2.10,-478.50
2.049799,0.165,-0.945,0.628,-59.66,-2.51,-479.99
2.062031,0.183,-0.950,0.700,-58.09,-3.08,-481.64
2.074217,0.230,-0.866,0.655,-56.37,-3.99,-483.16
2.086403,0.274,-0.844,0.594,-54.53,-5.17,-484.56
2.098578,0.254,-0.860,0.792,-52.96,-6.21,-486.01
2.11075,0.245,-0.653,0.277,-52.33,-8.01,-487.52
2.122951,0.209,-0.580,0.211,-53.00,-9.19,-489.00
2.13511,0.203,-0.403,0.296,-52.20,-10.34,-490.19
2.14738,0.201,-0.366,0.168,-51.35,-11.60,-491.08
2.15966,0.206,-0.274,0.181,-50.44,-12.89,-491.75
2.171964,0.223,-0.280,0.240,-48.93,-14.04,-492.26
2.184241,0.216,-0.232,0.320,-46.94,-14.75,-492.55
2.196676,0.258,-0.262,0.306,-45.11,-15.59,-492.61
2.208997,0.267,-0.268,0.288,-43.94,-16.52,-492.50
2.221376,0.262,-0.315,0.212,-43.84,-17.36,-492.30
2.233665,0.253,-0.315,0.159,-44.89,-17.92,-492.09
2.245979,0.226,-0.339,0.208,-45.88,-17.85,-491.70
2.258251,0.259,-0.374,0.168,-47.33,-17.85,-491.17
2.270569,0.389,-0.519,0.227,-49.09,-17.83,-490.51
2.282807,0.358,-0.760,0.330,-51.12,-16.81,-489.82
2.294986,0.239,-0.990,0.673,-53.25,-14.49,-489.15
2.307137,0.111,-1.181,1.095,-54.15,-11.84,-488.70
2.31931,-0.085,-1.185,1.360,-54.00,-9.22,-488.50
2.331452,-0.020,-1.302,1.198,-53.83,-7.39,-488.44
2.343613,0.110,-1.331,1.402,-53.23,-6.31,-488.49
2.35576,0.208,-1.281,1.465,-51.90,-6.10,-488.59
2.367887,0.289,-1.257,1.065,-50.76,-6.89,-488.69
2.380079,0.248,-1.275,1.075,-49.61,-7.76,-488.79
2.39225,0.215,-1.314,1.227,-48.02,-8.47,-489.04
2.404412,0.222,-1.278,1.108,-46.28,-9.42,-489.48
2.41658,0.223,-1.115,0.733,-45.09,-10.76,-490.14
2.428735,0.137,-0.938,0.323,-45.19,-11.93,-491.03
2.440867,0.114,-0.662,0.241,-45.52,-12.81,-492.14
2.453034,0.147,-0.489,0.177,-45.79,-13.55,-493.07
2.46524,0.196,-0.315,0.226,-44.59,-15.03,-493.79
2.47756,0.249,-0.126,0.079,-42.08,-18.21,-494.28
2.491873,0.304,-0.025,0.062,-36.83,-24.63,-494.58
2.503999,0.308,0.061,0.062,-31.72,-29.43,-494.66
2.516126,0.265,-0.002,0.100,-27.65,-33.32,-494.55
2.528302,0.217,-0.048,0.192,-25.17,-34.74,-494.31
2.54046,0.158,-0.075,0.144,-24.60,-35.16,-493.93
2.552691,0.040,-0.191,0.136,-26.95,-32.99,-493.41
2.564866,0.056,-0.321,0.312,-30.19,-29.32,-492.70
2.576979,0.093,-0.454,0.402,-33.27,-26.14,-491.88
2.589199,0.066,-0.672,0.472,-36.80,-23.15,-490.92
2.601359,0.168,-0.930,0.756,-40.06,-20.53,-489.98
2.613516,0.286,-1.134,1.106,-42.07,-18.63,-489.19
2.62785,0.333,-1.378,1.320,-43.71,-16.99,-488.55
2.639984,0.261,-1.403,1.497,-44.21,-15.83,-488.45
2.6522,0.157,-1.305,1.393,-44.14,-14.92,-488.67
2.66436,0.068,-1.183,1.061,-44.20,-14.07,-489.06
2.676504,0.018,-1.085,0.926,-44.24,-13.11,-489.51
2.688647,0.007,-1.041,1.028,-43.75,-11.99,-489.89
2.700776,0.098,-1.097,1.138,-42.73,-11.32,-490.15
2.712908,0.177,-1.072,1.107,-41.32,-11.20,-490.44
2.72506,0.225,-0.968,0.904,-40.10,-11.67,-490.78
2.737222,0.220,-0.747,0.673,-39.12,-12.42,-491.23
2.749393,0.254,-0.506,0.420,-38.28,-13.76,-491.70
2.761702,0.264,-0.261,0.270,-36.92,-15.93,-492.10
2.773925,0.263,-0.066,0.176,-34.16,-19.18,-492.39
2.786123,0.238,-0.000,0.138,-30.39,-22.81,-492.51
2.79829,0.242,0.116,0.002,-24.96,-26.97,-492.56
2.810543,0.263,0.127,0.066,-19.81,-30.00,-492.50
2.822854,0.197,0.127,0.086,-15.07,-31.66,-492.29
2.835078,0.093,0.050,0.133,-11.46,-31.44,-491.96
2.847161,0.029,-0.093,0.250,-12.37,-28.61,-491.51
2.859321,-0.040,-0.126,0.214,-15.08,-24.54,-490.94
2.871557,-0.143,-0.256,0.062,-20.78,-18.87,-490.17
2.883773,-0.064,-0.666,0.380,-27.39,-14.77,-489.20
2.895981,-0.031,-0.997,0.723,-32.73,-12.21,-488.23
2.908152,0.042,-1.194,1.011,-36.67,-10.50,-487.57
2.9203,0.169,-1.424,1.452,-39.23,-9.52,-487.18
2.932482,0.194,-1.625,1.813,-40.58,-9.08,-487.08
2.944636,0.166,-1.548,1.734,-41.14,-9.09,-487.28
2.956801,-0.130,-1.708,1.653,-41.27,-8.80,-487.53
2.968987,0.010,-1.249,1.049,-41.53,-8.80,-488.25
2.981135,-0.134,-1.346,0.971,-41.34,-8.20,-488.63
2.993324,0.018,-1.147,0.942,-41.48,-7.45,-489.14
3.005503,0.173,-1.076,1.082,-40.18,-7.41,-489.45
3.019859,0.269,-0.923,0.937,-38.65,-8.14,-489.84
3.032013,0.324,-0.795,0.772,-37.59,-9.53,-490.25
3.044198,0.292,-0.583,0.532,-36.56,-11.30,-490.78
3.056464,0.270,-0.391,0.295,-35.98,-13.59,-491.32
3.068756,0.251,-0.263,0.242,-34.80,-16.27,-491.81
3.081006,0.237,-0.106,0.090,-33.22,-20.03,-492.35
3.093204,0.213,-0.020,0.110,-30.29,-24.40,-492.80
3.105391,0.182,0.032,0.118,-26.30,-27.54,-493.17
3.117548,0.137,0.074,0.184,-22.00,-28.65,-493.40
3.129731,0.087,0.135,0.202,-17.27,-27.68,-493.46
3.141896,0.050,0.165,0.045,-10.51,-26.17,-493.26
3.154061,-0.020,0.117,0.129,-4.10,-22.83,-492.82
3.166127,-0.067,-0.070,0.242,-3.87,-18.16,-492.19
3.178334,-0.037,-0.316,0.372,-8.01,-14.79,-491.52
3.190498,-0.009,-0.514,0.540,-12.78,-12.30,-490.92
3.202663,0.056,-0.684,0.681,-17.47,-10.65,-490.45
3.214828,0.075,-0.904,0.839,-21.96,-9.45,-490.09
3.226969,0.071,-1.150,1.158,-25.96,-8.43,-489.84
3.239169,0.032,-1.287,1.310,-29.09,-7.56,-489.77
3.251402,0.039,-1.358,1.445,-31.42,-6.93,-489.80
3.263589,0.053,-1.370,1.472,-33.14,-6.57,-489.93
3.275743,-0.001,-1.232,1.228,-34.54,-6.32,-490.10
3.287896,0.074,-1.162,1.123,-35.55,-6.04,-490.19
3.300067,0.272,-1.142,1.128,-36.01,-6.18,-490.17
3.312198,0.291,-1.112,1.188,-35.92,-6.58,-490.22
3.32441,0.308,-0.998,1.065,-35.42,-7.23,-490.38
3.336572,0.226,-0.996,1.032,-35.02,-7.92,-490.71
3.348761,0.196,-0.828,0.809,-34.69,-8.80,-491.32
3.360909,0.172,-0.698,0.674,-34.57,-9.74,-492.19
3.373066,0.136,-0.563,0.495,-34.65,-10.66,-493.03
3.385202,0.107,-0.375,0.399,-34.53,-11.19,-493.85
3.397401,0.119,-0.216,0.296,-33.76,-12.05,-494.55
3.409601,0.129,-0.044,0.119,-31.75,-14.67,-495.07
3.421792,0.140,0.024,0.154,-27.81,-17.68,-495.31
3.43394,0.128,0.016,0.196,-23.90,-19.08,-495.30
3.446085,0.125,0.009,0.259,-20.93,-19.56,-495.14
3.458097,0.081,0.016,0.207,-18.50,-19.16,-494.89
3.470061,-0.014,0.015,0.166,-16.44,-17.44,-494.55
3.482099,-0.051,-0.077,0.242,-16.05,-13.64,-494.07
3.494192,-0.063,-0.176,0.376,-17.67,-10.31,-493.49
3.506439,-0.075,-0.202,0.373,-19.96,-7.38,-492.81
3.518629,0.017,-0.269,0.258,-23.84,-5.47,-491.99
3.530821,0.230,-0.461,0.180,-29.66,-6.08,-491.08
3.543076,0.367,-0.774,0.349,-35.19,-6.94,-490.10
3.555265,0.464,-1.336,0.907,-39.46,-7.07,-489.39
3.567509,0.305,-1.703,1.524,-42.15,-6.46,-489.21
3.579649,-0.099,-1.770,1.960,-43.33,-5.49,-489.56
3.591845,-0.331,-1.747,1.812,-43.80,-4.59,-490.29
3.604009,-0.379,-1.485,1.453,-43.84,-3.83,-491.38
3.616199,-0.258,-1.222,0.971,-43.70,-2.94,-491.99
3.628381,-0.201,-1.179,0.993,-43.22,-1.98,-492.09
3.640548,-0.052,-1.098,0.991,-42.38,-1.67,-491.94
3.654911,0.162,-1.207,1.018,-41.33,-2.22,-491.66
3.667058,0.236,-1.145,0.978,-40.23,-3.48,-491.71
3.679243,0.152,-0.770,0.577,-39.41,-5.10,-492.11
3.69144,0.056,-0.492,0.314,-39.22,-6.12,-492.66
3.703661,-0.020,-0.501,0.495,-38.80,-6.35,-493.30
3.715828,0.015,-0.149,0.100,-38.60,-7.03,-494.12
3.727995,0.054,-0.031,0.077,-38.32,-8.53,-494.79
3.740081,0.106,0.054,0.241,-32.77,-10.29,-495.11
3.75228,0.108,0.053,0.213,-27.56,-11.91,-495.12
3.764463,0.109,0.088,0.188,-23.09,-13.36,-494.94
3.776804,0.089,0.108,0.129,-18.08,-14.57,-494.58
3.789055,0.102,0.129,0.058,-12.32,-15.75,-494.02
3.801333,0.129,0.043,-0.086,2.90,-19.95,-493.37
3.81354,0.061,-0.024,0.089,7.21,-23.37,-492.64
3.825731,0.048,-0.103,0.066,1.48,-21.89,-491.80
3.838061,0.239,-0.321,-0.042,-12.26,-23.71,-490.77
3.85038,0.406,-0.794,0.192,-20.42,-23.59,-489.79
3.862593,0.390,-1.354,0.987,-25.84,-21.24,-489.04
3.874778,0.143,-1.671,1.566,-29.56,-18.54,-488.84
3.886936,-0.187,-1.905,2.041,-31.97,-15.87,-489.10
3.899127,-0.615,-1.846,2.233,-33.49,-13.46,-489.70
3.911324,-0.331,-1.687,1.313,-34.87,-11.53,-490.51
3.923475,-0.139,-1.194,1.455,-35.20,-10.49,-491.03
3.935733,-0.257,-1.548,0.771,-36.36,-9.27,-490.90
3.947901,0.012,-1.243,1.423,-35.77,-8.31,-490.73
3.960058,0.137,-1.459,1.198,-35.21,-8.61,-490.66
3.972202,0.069,-1.198,0.818,-35.13,-9.43,-491.05
3.984394,-0.025,-0.828,0.496,-35.62,-9.84,-491.64
3.996637,-0.037,-0.580,0.401,-36.01,-9.93,-492.39
4.008799,-0.002,-0.349,0.188,-36.60,-10.13,-493.30
4.02094,0.029,-0.169,0.095,-38.43,-10.51,-494.22
4.033056,0.079,-0.041,0.175,-35.90,-11.79,-494.86
4.045226,0.103,0.095,0.133,-29.80,-13.91,-495.23
4.057512,0.116,0.131,0.111,-22.32,-15.93,-495.34
4.069807,0.128,0.193,0.151,-15.38,-17.22,-495.26
4.081996,0.094,0.192,0.232,-9.86,-17.30,-494.94
4.094142,0.053,0.191,0.171,-4.94,-16.74,-494.49
4.106321,0.071,0.128,0.168,-0.93,-16.08,-493.90
4.118441,0.102,0.028,0.215,-0.41,-16.29,-493.22
4.130674,0.083,-0.003,0.139,-2.03,-16.83,-492.45
4.142924,0.097,-0.162,0.003,-7.54,-17.77,-491.34
4.155087,0.249,-0.616,0.368,-14.80,-16.80,-490.07
4.16724,0.287,-1.011,0.763,-20.64,-15.36,-488.86
4.179418,0.078,-1.355,1.023,-26.02,-13.48,-487.91
4.19165,-0.171,-1.547,1.282,-30.30,-11.22,-487.39
4.203843,-0.304,-1.630,1.514,-33.52,-8.95,-487.15
4.216002,-0.395,-1.650,1.510,-36.05,-7.16,-487.11
4.22818,-0.354,-1.537,1.153,-38.26,-5.80,-487.11
4.24038,-0.222,-1.365,0.873,-40.35,-4.51,-486.99
4.252577,-0.174,-1.514,1.134,-41.05,-3.33,-486.70
4.264813,0.009,-1.434,1.063,-40.93,-3.01,-486.69
4.277011,0.124,-1.315,0.894,-40.57,-3.55,-487.00
4.289169,0.073,-1.045,0.641,-40.33,-4.28,-487.52
4.301307,0.027,-0.728,0.512,-39.84,-4.76,-488.29
4.3135,-0.049,-0.585,0.451,-39.40,-4.80,-489.17
4.325746,0.004,-0.371,0.262,-39.53,-4.92,-490.34
4.337862,0.111,-0.128,0.300,-37.81,-6.28,-491.69
4.349972,0.126,-0.053,0.299,-34.36,-8.52,-492.73
4.362033,0.150,0.059,0.280,-29.48,-10.79,-493.53
4.374212,0.158,0.020,0.232,-25.59,-13.62,-494.12
4.386345,0.136,0.096,0.213,-21.47,-15.90,-494.60
4.398618,0.132,0.107,0.095,-16.16,-17.91,-494.87
4.410828,0.146,0.068,0.145,-12.85,-20.57,-494.95
4.422942,0.157,0.014,0.031,-11.46,-24.09,-494.84
4.435079,0.107,-0.013,0.060,-11.52,-28.40,-494.56
4.447231,0.038,-0.124,0.139,-14.72,-26.88,-494.01
4.459415,0.030,-0.398,0.105,-21.60,-23.84,-493.18
4.471523,0.090,-0.881,0.313,-28.69,-20.96,-492.32
4.483742,0.226,-1.236,0.858,-33.42,-18.44,-491.69
4.495887,0.204,-1.519,1.475,-36.17,-16.19,-491.18
4.50805,-0.020,-1.836,1.824,-37.84,-14.30,-490.94
4.5202,-0.305,-1.799,1.783,-39.05,-12.58,-491.23
4.532323,-0.313,-1.280,1.173,-39.94,-10.91,-491.79
4.544494,-0.167,-1.186,0.844,-40.93,-9.37,-491.87
4.556689,0.020,-1.242,0.835,-41.94,-8.36,-491.69
4.568938,0.109,-1.122,0.997,-42.00,-7.89,-491.47
4.581095,0.082,-1.146,1.181,-41.27,-7.67,-491.29
4.593257,0.059,-1.091,1.099,-40.21,-7.98,-491.33
4.605381,0.004,-0.883,0.743,-39.62,-8.17,-491.64
4.617535,0.003,-0.824,0.699,-39.05,-8.43,-492.07
4.631885,0.118,-0.536,0.385,-38.94,-9.69,-493.02
4.644027,0.140,-0.353,0.230,-39.59,-11.36,-493.84
4.656307,0.184,-0.141,0.096,-38.68,-14.85,-494.50
4.668554,0.177,-0.065,0.120,-36.42,-18.71,-494.89
4.68293,0.198,-0.054,0.230,-32.43,-21.77,-495.08
4.695105,0.212,-0.043,0.270,-29.62,-23.45,-495.07
4.707303,0.172,0.024,0.282,-26.77,-24.37,-494.95
4.719422,0.221,-0.001,0.433,-23.92,-24.94,-494.89
4.731506,0.042,-0.005,0.310,-21.71,-23.40,-494.66
4.743522,-0.002,-0.087,0.522,-22.05,-21.84,-494.60
4.757917,0.099,-0.048,0.079,-22.65,-23.32,-494.17
4.770091,0.101,-0.489,0.018,-31.39,-23.22,-493.26
4.782249,0.267,-0.651,0.073,-36.69,-22.00,-492.33
4.794401,0.192,-1.195,0.738,-40.78,-19.39,-491.33
4.806587,0.023,-1.414,1.311,-42.60,-16.49,-490.71
4.818838,-0.216,-1.651,1.444,-43.63,-13.71,-490.34
4.831006,-0.365,-1.705,1.473,-44.55,-11.02,-490.47
4.843171,-0.279,-1.370,1.315,-45.07,-8.73,-490.94
4.855334,-0.116,-1.369,1.227,-45.11,-7.20,-491.11
4.867486,-0.045,-1.314,1.091,-44.93,-6.50,-491.18
4.87964,-0.015,-1.187,1.159,-44.26,-6.23,-491.31
4.891861,0.124,-1.053,0.942,-43.19,-6.92,-491.59
4.904033,0.147,-0.886,0.595,-42.74,-8.11,-492.03
4.916221,0.158,-0.633,0.493,-42.19,-9.36,-492.50
4.928371,0.063,-0.617,0.597,-41.46,-9.97,-493.05
4.940489,0.075,-0.399,0.308,-40.91,-10.80,-493.88
4.952718,0.122,-0.204,0.090,-42.53,-12.15,-494.82
4.964981,0.179,0.016,0.220,-39.60,-14.92,-495.72
4.977122,0.177,0.056,0.271,-34.23,-16.71,-496.07
4.989292,0.172,0.029,0.249,-30.19,-18.15,-496.00
5.001465,0.194,0.038,0.252,-26.58,-19.66,-495.70
5.013626,0.183,0.017,0.234,-23.76,-21.13,-495.22
5.025802,0.163,-0.067,0.087,-22.58,-23.34,-494.63
5.038099,0.125,-0.129,0.123,-24.50,-24.42,-493.95
5.050302,0.033,-0.186,0.130,-27.81,-22.70,-493.29
5.062464,-0.015,-0.383,0.127,-33.54,-18.84,-492.56
5.074635,0.048,-0.730,0.423,-38.07,-15.67,-491.84
5.086825,0.093,-1.072,0.794,-41.24,-13.00,-491.30
5.09898,0.117,-1.326,1.212,-43.38,-10.70,-490.97
5.111145,-0.012,-1.546,1.552,-44.50,-8.88,-490.91
5.123306,-0.188,-1.488,1.521,-45.11,-7.42,-491.13
5.135495,-0.311,-1.376,1.191,-45.68,-6.11,-491.48
5.147677,-0.230,-1.156,0.747,-46.72,-4.86,-491.90
5.159859,-0.146,-1.204,0.782,-47.48,-3.56,-491.95
5.172108,-0.163,-1.209,1.214,-46.97,-2.46,-491.85
5.184274,-0.108,-1.285,1.292,-45.62,-1.88,-491.71
5.196441,-0.019,-1.136,1.004,-44.43,-2.23,-491.67
5.208572,0.042,-0.912,0.664,-43.70,-2.90,-491.70
5.2229,0.068,-0.762,0.756,-41.98,-3.95,-491.82
5.235115,0.106,-0.563,0.371,-41.26,-5.75,-492.15
5.247309,0.164,-0.293,0.245,-41.31,-8.02,-492.72
5.259589,0.207,-0.194,0.302,-39.52,-11.03,-493.30
5.27179,0.164,-0.109,0.261,-37.00,-13.91,-493.81
5.284016,0.173,-0.106,0.253,-34.94,-16.24,-494.29
5.296203,0.204,-0.005,0.253,-32.19,-18.88,-494.66
5.308357,0.196,0.023,0.192,-28.77,-21.62,-494.82
5.320506,0.178,0.068,0.151,-25.00,-24.19,-494.77
5.332666,0.157,0.009,0.159,-22.41,-25.98,-494.48
5.344798,0.181,-0.064,0.176,-22.04,-27.41,-494.03
5.357052,0.178,-0.096,0.131,-23.22,-28.52,-493.44
5.369359,0.211,-0.157,0.074,-25.37,-29.81,-492.79
5.38168,0.244,-0.385,0.032,-29.46,-29.59,-492.02
5.393869,0.260,-0.861,0.286,-34.55,-27.18,-491.22
5.406051,0.049,-1.313,0.850,-38.29,-23.58,-490.75
5.418237,-0.278,-1.626,1.345,-40.58,-19.57,-490.57
5.430384,-0.508,-1.833,1.709,-42.07,-15.70,-490.69
5.442519,-0.491,-1.718,1.587,-43.34,-12.72,-491.32
5.45688,-0.341,-1.471,1.319,-44.15,-9.97,-491.71
5.469075,-0.222,-1.488,1.221,-44.09,-8.65,-491.54
5.481261,-0.087,-1.402,1.138,-43.91,-7.95,-491.30
5.493432,0.029,-1.431,1.085,-43.46,-8.14,-491.14
5.505623,0.056,-1.149,0.741,-43.25,-8.80,-491.35
5.517788,0.041,-0.814,0.471,-43.12,-9.32,-491.75
5.52998,0.041,-0.752,0.473,-42.79,-9.68,-492.16
5.542198,0.082,-0.534,0.519,-41.84,-10.18,-492.83
5.554384,0.078,-0.379,0.195,-41.99,-11.07,-493.64
5.566594,0.110,-0.121,0.185,-41.60,-12.33,-494.59
5.578761,0.196,0.062,0.249,-36.09,-15.01,-495.25
5.590875,0.224,0.062,0.185,-30.59,-18.21,-495.52
5.60308,0.221,0.116,0.192,-25.18,-21.22,-495.53
5.615231,0.196,0.098,0.226,-20.61,-23.03,-495.37
5.627455,0.201,0.135,0.171,-16.47,-24.73,-495.16
5.639732,0.180,0.109,0.147,-12.72,-26.27,-494.84
5.651867,0.203,-0.002,0.141,-11.49,-28.22,-494.40
5.664082,0.176,-0.043,0.162,-12.52,-29.64,-493.97
5.676304,0.141,-0.109,0.065,-15.13,-30.48,-493.46
5.688642,0.147,-0.273,-0.026,-26.28,-31.94,-492.80
5.700781,0.114,-0.723,0.228,-32.65,-28.55,-492.01
5.71292,-0.024,-1.121,0.683,-37.33,-24.19,-491.26
5.72515,-0.209,-1.468,1.167,-40.31,-19.95,-490.76
5.737322,-0.335,-1.633,1.476,-42.38,-16.25,-490.49
5.749482,-0.410,-1.763,1.553,-44.00,-13.30,-490.55
5.761682,-0.362,-1.382,1.110,-45.28,-10.84,-490.72
5.773842,-0.359,-1.354,1.186,-45.71,-8.66,-490.43
5.786026,-0.203,-1.364,0.955,-46.16,-7.42,-489.90
5.798264,-0.082,-1.337,1.005,-46.58,-6.76,-489.45
5.810447,-0.023,-1.289,1.055,-46.35,-6.66,-489.26
5.822622,-0.009,-1.180,0.856,-45.84,-7.00,-489.31
5.834749,-0.058,-0.876,0.604,-45.51,-7.21,-489.59
5.846923,-0.104,-0.782,0.675,-44.56,-6.87,-489.80
5.859109,0.108,-0.613,0.575,-43.85,-7.59,-490.35
5.871315,0.163,-0.492,0.196,-44.39,-9.65,-490.96
5.883558,0.216,-0.248,0.302,-43.69,-12.05,-491.61
5.895861,0.254,-0.250,0.338,-41.45,-14.86,-492.07
5.908211,0.251,-0.158,0.229,-39.24,-17.87,-492.40
5.920407,0.234,-0.093,0.139,-37.10,-21.68,-492.66
5.932585,0.245,-0.084,0.187,-35.10,-24.90,-492.82
5.944758,0.249,-0.053,0.178,-32.91,-27.54,-492.89
5.956974,0.225,-0.062,0.116,-31.30,-30.40,-492.84
5.969319,0.197,-0.178,0.182,-31.40,-31.40,-492.66
5.981637,0.191,-0.245,0.281,-32.66,-30.44,-492.42
5.993905,0.212,-0.290,0.240,-34.43,-29.32,-492.09
6.006146,0.197,-0.529,0.209,-37.63,-27.75,-491.69
6.018322,0.091,-0.844,0.484,-41.06,-24.79,-491.28
6.030514,-0.108,-1.194,0.886,-43.32,-20.91,-490.90
6.044868,-0.279,-1.542,1.310,-44.89,-16.31,-490.66
6.056997,-0.331,-1.640,1.440,-45.71,-13.20,-490.80
6.069244,-0.306,-1.416,1.242,-46.23,-10.80,-491.19
6.081425,-0.239,-1.482,1.247,-46.30,-8.87,-491.19
6.093583,-0.095,-1.402,1.171,-45.91,-7.84,-491.06
6.105744,-0.013,-1.371,1.114,-45.37,-7.48,-490.92
6.117929,0.054,-1.154,0.948,-44.51,-7.81,-491.03
6.130167,0.059,-0.939,0.619,-43.87,-8.33,-491.28
6.142417,0.057,-0.771,0.434,-43.60,-8.59,-491.46
6.154578,0.103,-0.586,0.603,-42.69,-8.94,-491.85
6.166756,0.115,-0.445,0.336,-42.17,-10.03,-492.48
6.179006,0.147,-0.204,0.120,-42.26,-12.13,-493.33
6.191173,0.182,0.003,0.229,-38.74,-15.19,-494.00
6.203383,0.175,0.018,0.274,-34.00,-17.12,-494.37
6.215565,0.183,0.039,0.206,-29.70,-19.26,-494.54
6.227748,0.198,0.083,0.233,-25.45,-21.26,-494.56
6.239934,0.170,0.106,0.149,-21.09,-22.89,-494.45
6.25216,0.164,0.077,0.122,-16.93,-24.92,-494.23
6.264321,0.159,-0.022,0.232,-16.00,-25.54,-493.90
6.276457,0.210,-0.062,0.183,-16.63,-26.22,-493.54
6.288685,0.251,-0.204,0.089,-19.06,-27.89,-493.12
6.300994,0.246,-0.480,0.216,-23.91,-27.17,-492.66
6.313194,0.119,-0.869,0.511,-28.99,-24.38,-492.29
6.325356,-0.185,-1.304,0.965,-32.80,-20.55,-491.99
6.337501,-0.371,-1.586,1.331,-35.53,-16.66,-491.86
6.351858,-0.464,-1.829,1.598,-38.16,-12.95,-492.14
6.364039,-0.397,-1.533,1.273,-39.69,-10.54,-492.43
6.376204,-0.312,-1.623,1.445,-40.24,-8.61,-492.24
6.38844,-0.109,-1.525,1.247,-40.36,-7.76,-491.88
6.400639,-0.015,-1.518,1.153,-40.45,-7.64,-491.53
6.412827,0.054,-1.308,1.005,-40.42,-8.02,-491.54
6.424993,0.052,-1.099,0.683,-40.24,-8.85,-491.82
6.437106,0.059,-0.776,0.417,-40.49,-9.47,-492.17
6.449314,0.020,-0.648,0.522,-40.27,-9.81,-492.56
6.461471,0.069,-0.423,0.388,-39.52,-10.37,-493.31
6.473703,0.148,-0.167,0.132,-39.58,-12.40,-494.27
6.485934,0.174,0.067,0.172,-35.22,-16.35,-495.11
6.498097,0.175,0.124,0.231,-29.06,-18.64,-495.52
6.510353,0.164,0.115,0.186,-23.43,-20.64,-495.64
6.52266,0.182,0.157,0.194,-18.21,-22.31,-495.58
6.534958,0.184,0.185,0.131,-13.18,-23.71,-495.37
6.547239,0.159,0.176,0.115,-8.35,-24.83,-495.05
6.559457,0.135,0.013,0.170,-6.43,-25.84,-494.58
6.571607,0.107,-0.024,0.215,-7.38,-25.39,-494.08
6.583743,0.091,-0.005,0.073,-8.65,-25.87,-493.47
6.595999,0.138,-0.121,-0.037,-19.26,-29.15,-492.54
6.608346,0.165,-0.330,-0.076,-31.90,-30.43,-491.44
6.620504,0.166,-0.979,0.149,-39.68,-28.63,-490.13
6.632673,0.058,-1.565,0.737,-44.45,-24.80,-489.00
6.644872,-0.239,-2.095,1.505,-47.11,-20.45,-488.25
6.656983,-0.704,-2.159,1.888,-48.34,-16.40,-488.07
6.669149,-0.725,-2.413,2.276,-48.46,-12.67,-487.96
6.681385,-0.419,-1.390,1.475,-48.53,-11.22,-488.80
6.693557,-0.534,-1.242,0.290,-48.69,-9.79,-488.62
6.705736,-0.028,-1.464,0.805,-49.45,-7.98,-487.99
6.717908,0.116,-1.293,1.312,-47.07,-7.86,-487.50
6.730088,0.052,-1.215,0.897,-45.91,-8.65,-487.56
6.742241,0.030,-0.944,0.516,-45.75,-9.61,-488.07
6.754418,-0.080,-0.912,0.625,-45.51,-9.96,-488.83
6.766641,-0.102,-0.546,0.394,-45.09,-10.02,-490.03
6.778803,-0.030,-0.378,0.140,-45.88,-9.68,-491.34
6.791038,0.113,-0.100,0.087,-45.86,-11.81,-492.64
6.803188,0.194,0.071,0.117,-40.27,-16.38,-493.46
6.815564,0.234,0.177,0.092,-32.68,-20.16,-493.86
6.827876,0.220,0.142,0.079,-25.34,-23.16,-493.82
6.840041,0.209,0.076,0.160,-20.50,-26.00,-493.57
6.8522,0.186,0.052,0.260,-17.34,-26.83,-493.27
6.864343,0.161,0.001,0.223,-15.66,-27.21,-492.93
6.876492,0.190,-0.075,0.170,-16.03,-28.24,-492.58
6.888621,0.252,-0.132,0.180,-17.64,-29.28,-492.21
6.900968,0.291,-0.240,0.116,-20.58,-30.32,-491.75
6.913296,0.314,-0.553,0.183,-25.08,-29.60,-491.24
6.925497,0.193,-0.868,0.487,-30.06,-26.90,-490.78
6.937654,-0.043,-1.284,0.783,-34.15,-23.15,-490.37
6.949839,-0.231,-1.548,1.132,-37.24,-19.08,-490.12
6.962019,-0.376,-1.704,1.512,-39.19,-15.17,-490.14
6.97417,-0.370,-1.465,1.237,-40.74,-12.23,-490.59
6.986368,-0.318,-1.358,1.059,-41.75,-9.60,-490.66
6.998604,-0.144,-1.342,1.198,-42.10,-7.76,-490.39
7.010779,-0.104,-1.284,1.080,-42.19,-6.87,-490.06
7.02296,-0.003,-1.332,1.008,-42.33,-6.57,-489.94
7.035084,-0.037,-1.156,0.937,-41.96,-6.64,-490.12
7.047288,-0.084,-0.931,0.570,-42.05,-6.52,-490.51
7.059527,-0.119,-0.731,0.449,-42.36,-5.83,-490.90
7.073904,-0.029,-0.532,0.499,-41.86,-5.12,-491.35
7.086047,0.036,-0.466,0.465,-41.03,-5.20,-491.79
7.098182,0.104,-0.204,0.196,-40.39,-6.37,-492.23
7.110356,0.117,-0.121,0.272,-38.68,-8.10,-492.48
7.122415,0.087,-0.065,0.319,-35.26,-9.10,-492.55
7.134443,0.109,-0.055,0.299,-32.04,-10.09,-492.47
7.146569,0.151,-0.064,0.328,-29.76,-11.35,-492.35
7.158738,0.168,-0.042,0.250,-27.40,-13.01,-492.21
7.170883,0.215,-0.102,0.172,-26.77,-15.64,-492.02
7.183037,0.222,-0.101,0.244,-26.48,-17.66,-491.84
7.195289,0.206,-0.238,0.271,-27.28,-18.36,-491.60
7.207519,0.189,-0.356,0.351,-29.35,-17.66,-491.38
7.221897,0.311,-0.588,0.486,-32.48,-16.71,-491.23
7.234044,0.285,-0.866,0.697,-35.00,-15.68,-491.23
7.246201,-0.023,-1.069,0.921,-37.51,-13.74,-491.38
7.258324,-0.363,-1.133,0.947,-39.58,-10.78,-491.63
7.270523,-0.610,-1.370,1.163,-41.28,-7.54,-491.95
7.284918,-0.703,-1.069,1.225,-42.44,-4.08,-492.35
7.297181,-0.648,-1.169,1.121,-42.32,-1.66,-491.96
7.30932,-0.093,-1.000,0.773,-42.24,-0.67,-491.21
7.321547,0.335,-1.605,1.143,-43.19,-1.67,-490.44
7.335894,-0.062,-1.164,1.188,-41.69,-3.07,-490.23
7.348084,-0.220,-1.073,0.420,-42.05,-3.49,-490.27
7.360274,-0.225,-0.691,0.444,-42.33,-2.53,-490.55
7.372482,-0.105,-0.814,0.630,-41.90,-1.91,-490.63
7.386896,0.018,-0.344,0.456,-40.59,-2.56,-491.23
7.399044,0.076,-0.291,0.394,-39.57,-3.33,-491.63
7.411058,0.138,-0.103,0.443,-36.57,-5.00,-491.86
7.423076,0.154,-0.160,0.378,-33.72,-6.95,-491.82
7.435275,0.189,-0.160,0.352,-32.06,-9.11,-491.81
7.447447,0.225,-0.114,0.343,-30.00,-11.48,-491.88
7.459607,0.252,-0.034,0.292,-28.18,-14.22,-492.01
7.471773,0.297,0.018,0.205,-25.53,-17.41,-492.11
7.483932,0.364,-0.071,0.190,-24.17,-21.41,-492.20
7.496189,0.308,-0.257,0.329,-24.70,-23.09,-492.34
7.508347,-0.157,-0.151,0.558,-25.68,-20.67,-492.45
7.520541,-0.400,-0.264,0.242,-26.22,-14.00,-492.16
7.532779,0.142,-0.641,0.275,-31.64,-11.49,-491.74
7.544931,0.304,-0.859,0.681,-34.48,-10.74,-491.40
7.557078,0.113,-1.246,1.190,-36.34,-9.62,-491.36
7.56922,-0.097,-1.383,1.325,-37.69,-8.38,-491.71
7.581417,-0.248,-1.509,1.363,-39.07,-7.06,-492.23
7.593609,-0.449,-1.459,1.421,-40.05,-5.46,-492.87
7.605804,-0.285,-1.024,1.162,-40.34,-4.01,-493.27
7.617973,-0.144,-1.293,1.201,-40.47,-3.14,-492.97
7.630118,0.019,-1.045,1.173,-39.96,-3.06,-492.60
7.642231,0.128,-1.016,0.927,-39.37,-3.80,-492.16
7.654394,0.103,-0.683,0.578,-38.93,-4.92,-491.87
7.666546,0.045,-0.650,0.500,-38.58,-5.54,-491.51
7.680876,0.034,-0.446,0.576,-37.53,-5.93,-491.57
7.693013,0.037,-0.378,0.382,-37.73,-6.22,-491.96
7.705193,0.056,-0.174,0.359,-36.65,-6.88,-492.46
7.717238,0.090,-0.013,0.316,-34.04,-7.87,-492.84
7.729273,0.103,-0.001,0.306,-30.74,-9.14,-493.00
7.741306,0.103,0.026,0.284,-27.20,-10.41,-492.94
7.753435,0.141,0.058,0.212,-23.90,-12.26,-492.77
7.765586,0.153,-0.011,0.206,-21.58,-14.43,-492.48
7.777832,0.150,-0.097,0.280,-21.36,-15.60,-492.13
7.789976,0.135,-0.153,0.291,-22.67,-15.79,-491.75
7.802166,0.111,-0.226,0.219,-25.26,-15.73,-491.41
7.814384,0.076,-0.423,0.258,-29.79,-14.81,-491.01
7.82655,-0.003,-0.735,0.448,-34.30,-12.70,-490.55
7.838739,-0.012,-1.026,0.774,-37.86,-10.52,-490.18
7.850898,-0.036,-1.305,1.103,-40.53,-8.67,-489.94
7.863067,-0.160,-1.516,1.262,-42.43,-7.11,-489.89
7.875249,-0.265,-1.744,1.587,-43.73,-5.65,-490.05
7.887404,-0.260,-1.468,1.396,-44.16,-4.57,-490.26
7.899588,-0.264,-1.402,1.169,-44.31,-3.59,-490.19
7.911759,-0.217,-1.456,1.132,-44.17,-2.72,-489.90
7.923928,-0.024,-1.502,1.266,-43.45,-2.54,-489.69
7.936082,0.149,-1.378,1.057,-42.54,-3.39,-489.78
7.948276,0.160,-1.042,0.683,-41.74,-4.69,-490.15
7.960461,0.052,-0.782,0.562,-40.79,-5.58,-490.57
7.972615,0.021,-0.569,0.559,-39.54,-6.22,-491.24
7.984776,0.041,-0.337,0.168,-39.97,-7.10,-492.19
7.997006,0.090,-0.072,0.126,-38.98,-9.64,-493.25
8.009165,0.112,0.127,0.214,-33.49,-12.18,-494.08
8.021382,0.112,0.112,0.200,-26.92,-13.77,-494.62
8.033665,0.128,0.170,0.186,-20.63,-15.34,-494.91
8.04595,0.079,0.189,0.190,-14.72,-15.90,-494.96
8.058112,0.066,0.216,0.140,-8.58,-15.55,-494.81
8.070244,0.088,0.178,0.187,-3.71,-15.29,-494.48
8.082484,0.104,0.105,0.184,-1.34,-15.60,-494.06
8.09476,0.127,0.092,0.117,-0.10,-16.94,-493.58
8.10696,0.145,0.004,0.029,-0.60,-20.65,-492.94
8.119176,0.230,-0.277,0.014,-5.71,-23.37,-492.19
8.131394,0.275,-0.766,0.266,-13.32,-22.09,-491.38
8.143551,0.055,-1.345,0.847,-19.63,-19.09,-490.69
8.155796,-0.234,-1.727,1.351,-24.19,-15.34,-490.32
8.167981,-0.448,-1.963,1.840,-27.21,-11.76,-490.28
8.180132,-0.531,-1.963,1.913,-29.47,-9.14,-490.71
8.192336,-0.340,-1.504,1.345,-31.07,-7.32,-491.00
8.204531,-0.169,-1.553,1.217,-32.45,-6.06,-490.78
8.216754,-0.043,-1.514,1.342,-33.10,-5.40,-490.40
8.228911,0.085,-1.518,1.319,-32.97,-5.77,-490.13
8.241095,0.072,-1.315,0.963,-33.13,-6.70,-490.34
8.253278,-0.021,-0.917,0.526,-33.69,-7.32,-490.83
8.265487,-0.110,-0.753,0.506,-34.07,-7.12,-491.34
8.277664,-0.072,-0.557,0.419,-34.11,-6.83,-492.14
8.289842,0.001,-0.129,0.026,-36.04,-6.78,-493.24
8.302151,0.059,0.129,0.037,-28.23,-10.32,-494.19
8.31433,0.078,0.283,0.129,-18.72,-11.19,-494.67
8.326479,0.095,0.335,0.052,-9.31,-11.65,-494.75
8.338567,0.070,0.327,0.059,-0.67,-11.72,-494.53
8.352886,0.037,0.311,0.071,7.95,-10.78,-494.07
8.36499,0.061,0.350,-0.083,15.85,-10.80,-493.60
8.377181,0.067,0.266,-0.157,25.15,-11.85,-493.06
8.389414,0.102,0.130,0.108,28.89,-12.66,-492.51
8.401544,0.290,-0.123,0.112,23.79,-15.09,-492.04
8.413841,0.492,-0.365,0.177,16.27,-17.50,-491.72
8.426136,0.436,-0.988,0.517,7.33,-16.95,-491.47
8.438321,0.054,-1.627,1.234,-0.71,-14.46,-491.58
8.450456,-0.408,-1.965,1.777,-6.72,-11.33,-492.01
8.462579,-0.720,-2.167,2.091,-11.37,-8.33,-492.74
8.47474,-0.478,-1.576,1.440,-14.98,-6.32,-493.74
8.486983,-0.345,-1.675,1.331,-17.80,-4.45,-493.98
8.499159,-0.195,-1.536,1.436,-19.51,-3.16,-493.77
8.511318,-0.149,-1.485,1.357,-20.51,-2.49,-493.32
8.523475,-0.063,-1.310,0.925,-21.73,-2.55,-493.06
8.535658,-0.014,-0.938,0.658,-23.05,-2.71,-493.12
8.547894,-0.126,-0.729,0.565,-23.58,-2.47,-493.30
8.560048,-0.195,-0.442,0.481,-23.57,-1.54,-493.50
8.572244,-0.191,-0.347,0.392,-22.82,-0.46,-493.63
8.584516,-0.108,0.136,0.005,-19.19,2.01,-493.98
8.596812,-0.090,0.190,-0.048,-4.25,5.73,-494.14
8.609013,-0.067,0.301,0.040,5.47,6.37,-494.14
8.621084,-0.111,0.345,-0.010,13.11,6.98,-494.00
8.633291,-0.146,0.358,-0.081,22.77,8.48,-493.71
8.64547,-0.072,0.345,-0.045,30.64,9.07,-493.29
8.657617,-0.008,0.299,-0.015,36.01,8.20,-492.82
8.669791,-0.011,0.143,0.045,39.55,7.59,-492.30
8.68191,0.173,-0.086,0.181,33.62,4.86,-491.75
8.694202,0.548,-0.323,0.232,25.46,-0.16,-491.33
8.706474,0.579,-0.885,0.382,16.35,-3.51,-491.02
8.718636,0.182,-1.658,1.179,7.13,-3.49,-490.91
8.730791,-0.282,-1.987,1.915,0.35,-2.07,-491.21
8.742975,-0.597,-2.204,2.274,-4.88,-0.68,-491.78
8.755153,-0.481,-1.787,1.970,-9.08,-0.02,-492.58
8.767314,-0.279,-1.592,1.228,-12.62,0.22,-492.76
8.779486,-0.193,-1.453,1.293,-15.32,0.45,-492.42
8.791651,-0.111,-1.389,1.296,-16.96,0.36,-491.77
8.803835,0.054,-1.277,1.032,-18.45,-0.61,-491.14
8.816004,0.174,-0.900,0.627,-19.75,-2.32,-490.76
8.828177,0.006,-0.816,0.555,-21.06,-3.47,-490.44
8.840328,-0.092,-0.661,0.637,-21.80,-3.88,-490.76
8.852518,-0.055,-0.280,0.090,-24.09,-4.12,-491.67
8.864747,-0.046,0.111,-0.006,-20.87,0.19,-492.74
8.876918,-0.023,0.282,0.080,-10.92,0.42,-493.65
8.889075,0.028,0.452,0.021,-1.56,-0.20,-494.14
8.901202,0.048,0.525,-0.069,8.26,-0.34,-494.20
8.913351,0.025,0.541,-0.049,16.82,-0.75,-493.85
8.92553,0.041,0.466,-0.076,24.17,-1.40,-493.22
8.937745,0.174,0.329,-0.159,32.20,-3.57,-492.55
8.950112,0.328,0.124,-0.054,42.01,-9.72,-491.94
8.962296,0.331,-0.004,-0.006,52.80,-18.34,-491.62
8.97456,0.381,-0.403,0.127,42.52,-20.11,-491.50
8.98679,0.393,-0.809,0.479,31.31,-19.06,-491.52
8.999056,-0.121,-1.529,0.780,19.89,-15.25,-491.55
9.01122,-0.474,-1.886,1.651,11.20,-10.97,-492.00
9.023363,-0.778,-2.350,2.554,4.87,-7.38,-492.52
9.035513,-0.767,-1.936,2.138,-0.27,-5.72,-493.52
9.049871,-0.582,-1.716,1.451,-5.16,-4.42,-493.96
9.06206,-0.422,-1.468,1.104,-8.50,-3.87,-493.69
9.074235,-0.191,-1.524,1.135,-11.32,-3.62,-493.01
9.086425,0.067,-1.397,0.947,-13.70,-4.24,-492.48
9.098583,0.131,-0.947,0.678,-15.53,-5.38,-492.28
9.110799,0.049,-0.716,0.400,-17.12,-6.14,-492.11
9.123002,0.011,-0.420,0.444,-18.02,-6.36,-492.46
9.135206,-0.058,-0.210,0.139,-19.31,-6.15,-493.02
9.147392,-0.033,0.221,0.111,-14.08,-4.94,-493.69
9.159568,-0.040,0.296,0.202,-6.13,-4.71,-494.06
9.173898,0.010,0.443,-0.073,4.95,-4.51,-494.22
9.186084,0.021,0.480,-0.210,15.24,-3.59,-494.11
9.198294,0.026,0.490,-0.269,24.98,-3.38,-493.83
9.210452,0.128,0.470,-0.229,33.28,-4.59,-493.41
9.222652,0.167,0.362,-0.204,40.89,-7.25,-492.91
9.234988,0.168,0.092,0.009,45.93,-11.28,-492.37
9.247191,0.399,-0.165,0.168,37.99,-14.35,-492.09
9.259421,0.629,-0.382,0.331,29.26,-16.58,-492.07
9.271723,0.371,-1.029,0.457,19.08,-16.59,-492.17
9.283861,-0.273,-1.662,1.083,8.70,-13.40,-492.46
9.296106,-0.847,-2.234,1.978,1.51,-9.37,-492.71
9.308273,-1.075,-2.602,2.770,-3.63,-6.31,-493.30
9.320424,-0.583,-1.734,1.607,-7.81,-5.03,-494.26
9.332624,-0.369,-1.779,1.382,-11.32,-4.20,-494.34
9.344823,-0.410,-1.463,1.223,-13.66,-3.43,-493.89
9.357054,-0.291,-1.495,1.181,-15.31,-2.71,-492.88
9.369258,0.031,-1.366,0.916,-17.15,-2.93,-492.03
9.381457,0.172,-0.916,0.682,-18.48,-3.83,-491.42
9.393657,0.010,-0.865,0.627,-18.88,-4.66,-490.85
9.405834,-0.008,-0.286,0.290,-19.64,-5.17,-490.97
9.418085,-0.077,-0.088,-0.028,-23.95,-2.37,-491.35
9.43026,-0.005,0.309,0.035,-16.56,-0.28,-491.81
9.442369,0.003,0.368,0.022,-6.30,-1.28,-492.08
9.454464,0.032,0.351,-0.092,4.24,-0.90,-492.26
9.466595,0.104,0.478,-0.137,14.43,-1.03,-492.42
9.478752,0.110,0.491,-0.149,23.35,-1.85,-492.43
9.490883,0.134,0.439,-0.086,30.85,-3.33,-492.30
9.503199,0.207,0.357,-0.031,37.77,-6.10,-492.12
9.515514,0.204,0.245,-0.183,44.84,-9.66,-491.93
9.527828,0.196,0.100,-0.201,52.66,-13.43,-491.77
9.540146,0.365,-0.289,-0.163,63.20,-18.90,-491.60
9.552541,0.395,-0.777,-0.131,76.08,-22.25,-491.62
9.566825,-0.244,-1.751,0.665,55.67,-17.38,-491.63
9.579013,-0.813,-2.495,2.017,43.21,-11.55,-491.70
9.591171,-1.215,-2.968,3.310,34.13,-7.19,-492.22
9.603344,-0.840,-2.192,2.043,26.64,-4.82,-492.93
9.615511,-0.634,-1.884,1.384,19.86,-3.03,-492.92
9.6299,-0.488,-1.659,1.017,12.93,-1.27,-492.07
9.642131,-0.203,-1.557,0.961,7.72,-0.56,-491.15
9.654324,-0.077,-1.422,1.014,3.45,-0.53,-490.41
9.666519,-0.016,-0.925,0.844,0.49,-1.00,-490.03
9.680861,-0.093,-0.669,0.510,-2.11,-2.12,-489.51
9.693033,-0.052,-0.245,0.348,-4.34,-2.99,-489.57
9.705242,-0.047,-0.065,0.023,-6.65,-3.36,-489.84
9.717424,-0.007,0.372,-0.158,0.90,0.31,-490.31
9.729528,0.038,0.403,-0.121,11.96,2.02,-490.62
9.741703,0.057,0.534,-0.271,22.26,3.00,-490.87
9.753898,0.056,0.619,-0.409,31.92,3.54,-490.98
9.766112,0.097,0.567,-0.304,40.10,2.73,-490.81
9.778359,0.149,0.463,-0.176,46.61,0.64,-490.45
9.790664,0.257,0.246,-0.166,53.36,-3.48,-490.04
9.802894,0.463,0.029,-0.177,62.15,-10.32,-489.80
9.815059,0.539,-0.183,0.241,56.40,-15.34,-489.79
9.827342,0.443,-0.649,0.304,44.84,-16.09,-489.85
9.839488,0.009,-1.357,0.587,31.83,-13.61,-489.89
9.851679,-0.729,-2.089,1.495,21.80,-9.08,-490.00
9.863795,-1.240,-2.517,2.580,14.62,-4.81,-490.21
9.875972,-1.096,-2.482,2.410,8.45,-2.54,-490.81
9.888117,-0.842,-2.154,1.643,3.46,-1.37,-491.00
9.900376,-0.524,-1.762,1.404,-0.39,-0.86,-490.68
9.912541,-0.311,-1.810,1.191,-3.70,-1.10,-489.81
9.924739,0.006,-1.499,0.857,-6.74,-2.15,-489.03
9.936915,0.071,-0.937,0.474,-9.03,-3.75,-488.44
9.949105,-0.002,-0.977,0.450,-11.15,-5.07,-487.87
9.96128,0.064,-0.198,0.247,-12.33,-6.35,-488.08
9.973412,-0.054,-0.189,0.054,-15.52,-6.22,-488.40
9.985589,0.059,0.229,0.192,-9.01,-7.41,-489.00
9.997746,0.070,0.356,0.162,-2.11,-9.14,-489.51
10.009878,0.111,0.502,-0.086,7.19,-9.82,-489.99
10.022036,0.144,0.702,-0.313,17.57,-8.50,-490.27
10.034301,0.097,0.652,-0.396,27.62,-7.87,-490.21
10.046488,0.127,0.570,-0.186,35.59,-8.28,-489.93
10.058674,0.201,0.461,-0.100,42.21,-10.07,-489.56
10.070967,0.223,0.339,-0.107,48.40,-13.18,-489.15
10.083304,0.277,0.148,-0.126,55.15,-17.56,-488.84
10.095489,0.487,-0.055,-0.003,64.28,-25.13,-488.72
10.107706,0.477,-0.477,0.256,52.44,-26.23,-488.74
10.119867,0.149,-1.185,0.324,38.10,-23.41,-488.85
10.132014,-0.531,-1.934,1.271,26.25,-18.18,-489.08
10.144241,-0.977,-2.391,2.197,17.65,-13.06,-489.43
10.156417,-1.214,-2.703,2.844,11.10,-9.26,-489.94
10.168572,-0.845,-2.006,1.927,5.39,-7.36,-490.73
10.180748,-0.565,-2.040,1.590,0.66,-6.15,-490.65
10.192898,-0.362,-1.691,1.297,-2.99,-5.81,-490.07
10.205072,-0.206,-1.611,1.126,-6.05,-5.65,-489.22
10.217334,-0.012,-1.423,0.846,-8.85,-5.99,-488.51
10.229501,0.136,-0.796,0.598,-10.52,-6.90,-487.95
10.241674,-0.018,-0.837,0.542,-12.34,-7.34,-487.63
10.253849,-0.043,-0.197,0.155,-13.16,-7.72,-487.82
10.26602,0.010,0.106,0.098,-13.10,-7.27,-488.23
10.278188,0.098,0.325,0.174,-4.95,-9.39,-488.68
10.290324,0.107,0.476,-0.022,4.02,-11.00,-489.07
10.302507,0.105,0.614,-0.279,15.00,-9.14,-489.47
10.314732,0.089,0.709,-0.403,25.13,-7.78,-489.66
10.326911,0.119,0.668,-0.283,33.84,-7.56,-489.53
10.339111,0.193,0.537,-0.156,40.76,-8.79,-489.19
10.351476,0.198,0.338,-0.017,47.09,-11.34,-488.82
10.363754,0.303,0.213,0.068,45.17,-13.33,-488.55
10.375873,0.453,0.034,0.038,39.62,-17.72,-488.36
10.388034,0.547,-0.262,0.093,31.57,-21.34,-488.32
10.400344,0.318,-0.796,0.348,20.97,-20.85,-488.33
10.412468,-0.145,-1.455,0.544,9.59,-17.06,-488.31
10.424643,-0.551,-1.913,1.579,1.34,-12.02,-488.36
10.436791,-0.877,-2.365,2.159,-4.48,-7.69,-488.41
10.448926,-0.969,-2.441,2.426,-9.01,-4.74,-488.80
10.461113,-0.607,-1.731,1.588,-12.80,-3.27,-489.33
10.473322,-0.410,-1.763,1.389,-15.72,-2.52,-489.13
10.485525,-0.314,-1.576,1.255,-17.85,-2.27,-488.56
10.49991,-0.091,-1.522,1.117,-19.64,-2.76,-487.75
10.512094,-0.000,-1.080,0.658,-21.16,-3.68,-487.46
10.524259,-0.059,-0.876,0.597,-22.01,-4.29,-487.18
10.536425,-0.057,-0.637,0.543,-22.63,-4.39,-487.37
10.548579,-0.021,-0.440,0.271,-23.45,-4.84,-487.77
10.562855,0.085,0.103,0.241,-20.82,-7.15,-488.56
10.574985,0.146,0.268,0.224,-14.15,-9.60,-489.06
10.587136,0.137,0.370,0.033,-5.46,-12.12,-489.34
10.599347,0.127,0.483,-0.114,6.32,-11.48,-489.52
10.611513,0.100,0.498,-0.143,16.74,-11.02,-489.49
10.625876,0.100,0.455,-0.045,26.91,-11.27,-489.26
10.638011,0.115,0.457,0.041,31.11,-10.93,-489.02
10.650212,0.184,0.316,-0.000,34.65,-11.71,-488.76
10.662572,0.211,0.287,-0.050,41.99,-15.19,-488.56
10.674884,0.178,0.154,-0.041,48.23,-19.16,-488.29
10.687078,0.392,-0.057,-0.086,57.69,-26.09,-488.06
10.699395,0.445,-0.511,0.096,59.21,-29.45,-487.87
10.711582,0.169,-1.209,0.433,44.58,-26.30,-487.74
10.723764,-0.451,-1.932,1.142,32.02,-21.00,-487.77
10.735911,-0.993,-2.374,2.098,22.63,-15.37,-488.07
10.748069,-1.199,-2.687,2.910,15.57,-11.16,-488.65
10.760203,-0.817,-1.859,1.886,9.59,-8.94,-489.45
10.772424,-0.494,-1.711,1.378,4.34,-7.55,-489.45
10.784651,-0.328,-1.430,1.020,-0.23,-6.69,-488.89
10.796796,-0.216,-1.525,1.211,-3.88,-6.12,-487.92
10.808981,-0.165,-1.469,1.084,-6.53,-6.05,-487.05
10.821136,-0.101,-1.098,0.774,-8.75,-6.26,-486.53
10.833324,-0.169,-1.080,0.623,-10.31,-6.28,-485.99
10.845579,-0.076,-0.358,0.337,-12.12,-6.29,-486.18
10.857757,-0.070,-0.167,0.068,-14.07,-5.33,-486.49
10.869923,0.041,0.266,0.132,-6.55,-6.23,-486.88
10.882062,0.122,0.378,0.029,1.27,-8.89,-487.08
10.894231,0.145,0.448,-0.171,12.87,-8.15,-487.17
10.906489,0.175,0.565,-0.334,24.11,-7.95,-487.24
10.918725,0.129,0.565,-0.257,33.50,-8.24,-487.15
10.930863,0.142,0.510,-0.071,40.41,-9.26,-486.92
10.943056,0.195,0.429,-0.043,46.30,-11.13,-486.65
10.955408,0.249,0.300,-0.092,52.67,-14.45,-486.42
10.967765,0.225,0.162,-0.007,58.91,-18.96,-486.24
10.979927,0.305,-0.036,0.012,51.07,-22.99,-486.17
10.992165,0.399,-0.528,0.065,48.18,-25.42,-486.13
11.00438,0.172,-1.235,0.533,34.66,-22.63,-486.23
11.016633,-0.378,-1.855,1.266,23.46,-18.16,-486.55
11.028808,-0.824,-2.247,2.045,15.04,-13.57,-487.11
11.040966,-1.016,-2.410,2.603,8.49,-9.89,-487.96
11.053094,-0.705,-1.806,1.871,2.89,-7.96,-488.96
11.065266,-0.559,-1.823,1.473,-1.66,-6.55,-489.07
11.077508,-0.357,-1.504,1.227,-5.45,-5.75,-488.75
11.091884,-0.086,-1.506,1.171,-8.95,-5.68,-487.95
11.104083,0.081,-1.278,0.875,-11.49,-6.53,-487.55
11.116263,0.032,-0.898,0.595,-13.70,-7.38,-487.34
11.128492,-0.114,-0.876,0.611,-14.87,-7.64,-487.04
11.140676,-0.205,-0.354,0.449,-16.20,-6.79,-487.32
11.152845,-0.192,-0.446,0.451,-16.58,-5.47,-487.64
11.164974,-0.020,-0.045,0.242,-15.94,-5.68,-488.37
11.177156,-0.683,0.305,-0.032,-9.21,-1.85,-489.30
11.189365,0.527,0.155,-0.135,7.82,0.10,-490.25
11.201684,0.636,0.838,0.127,11.40,-5.78,-491.03
11.213854,-0.157,0.382,-0.436,22.01,-3.74,-490.90
11.226043,0.066,0.628,-0.208,30.54,-3.16,-490.87
11.238252,0.092,0.455,-0.222,37.83,-4.53,-490.50
11.250476,0.183,0.363,-0.070,44.38,-7.45,-490.05
11.262838,0.170,0.218,0.036,46.06,-10.06,-489.54
11.275088,0.216,-0.008,0.030,41.54,-13.31,-489.02
11.287341,0.384,-0.297,0.097,31.77,-16.00,-488.69
11.299672,0.348,-0.917,0.257,20.47,-15.98,-488.38
11.311804,-0.001,-1.698,0.856,9.57,-13.59,-488.12
11.323952,-0.530,-2.394,1.962,1.58,-10.02,-488.05
11.33612,-1.051,-2.995,3.165,-3.91,-7.20,-488.47
11.348272,-0.743,-1.959,2.008,-8.34,-6.10,-489.71
11.360459,-0.343,-1.861,1.251,-12.28,-5.51,-490.01
11.374895,-0.164,-1.559,1.124,-15.80,-5.31,-489.63
11.387091,-0.032,-1.567,1.163,-17.72,-5.35,-488.92
11.399251,0.146,-1.487,0.961,-19.45,-6.02,-488.40
11.411396,0.204,-1.036,0.719,-20.56,-7.00,-488.29
11.423616,0.020,-1.013,0.688,-21.05,-7.63,-488.16
11.435813,0.018,-0.399,0.373,-21.70,-8.06,-488.71
11.44798,-0.031,-0.200,0.077,-23.49,-8.20,-489.43
11.460195,0.059,0.325,-0.039,-12.77,-8.37,-490.22
11.472389,0.036,0.435,-0.088,-0.70,-7.38,-490.58
11.484634,0.065,0.543,-0.209,10.90,-6.68,-490.67
11.496777,0.081,0.545,-0.200,21.12,-6.58,-490.56
11.508949,0.083,0.580,-0.207,29.95,-7.11,-490.28
11.521093,0.104,0.559,-0.124,36.99,-8.20,-489.92
11.533218,0.125,0.407,-0.075,42.88,-9.82,-489.52
11.545368,0.108,0.265,0.054,45.30,-10.66,-489.16
11.5577,0.124,0.020,0.040,43.05,-12.02,-488.87
11.569929,0.350,-0.423,0.250,32.87,-14.20,-488.67
11.582142,0.242,-1.021,0.688,22.31,-13.28,-488.62
11.594306,-0.199,-1.508,1.284,13.13,-10.82,-488.81
11.60643,-0.485,-1.849,1.810,6.03,-8.20,-489.15
11.61866,-0.520,-1.787,1.773,-0.08,-6.30,-489.62
11.630816,-0.349,-1.502,1.375,-5.65,-5.22,-490.20
11.642985,-0.224,-1.265,1.029,-10.42,-4.41,-490.20
11.655144,-0.163,-1.192,1.105,-14.10,-3.63,-489.62
11.667352,-0.103,-1.164,0.922,-17.33,-3.11,-488.67
11.679541,0.051,-1.028,0.880,-20.08,-3.11,-487.78
11.693929,0.084,-0.668,0.441,-23.40,-3.95,-486.98
11.706141,0.073,-0.494,0.338,-26.17,-4.40,-486.46
11.718272,0.056,-0.439,0.411,-27.82,-4.68,-486.07
11.730465,0.076,-0.398,0.439,-28.96,-5.30,-485.90
11.744925,0.117,-0.158,0.216,-30.52,-6.95,-486.14
11.757219,0.144,-0.128,0.128,-31.87,-10.06,-486.30
11.769517,0.193,-0.160,0.137,-32.56,-13.83,-486.28
11.783895,0.099,-0.404,0.336,-35.38,-13.73,-485.97
11.796057,0.058,-0.554,0.540,-37.63,-12.61,-485.67
11.808252,-0.082,-0.659,0.796,-37.81,-11.15,-485.41
11.820416,-0.159,-0.766,0.584,-39.79,-9.03,-485.01
11.832576,-0.164,-0.784,0.655,-40.89,-6.98,-484.72
11.844763,-0.244,-0.984,0.493,-42.27,-4.90,-484.35
11.856939,-0.157,-0.776,0.464,-43.93,-2.83,-484.25
11.869084,-0.202,-0.830,0.648,-44.88,-0.90,-483.88
11.881285,-0.197,-0.874,0.753,-45.72,0.52,-483.45
11.893469,-0.190,-0.889,0.744,-46.28,1.50,-482.97
11.905638,-0.187,-0.884,0.750,-47.08,2.13,-482.56
11.917865,-0.156,-0.799,0.748,-47.87,2.43,-482.20
11.93004,-0.178,-0.737,0.817,-47.61,2.46,-482.08
11.942211,-0.140,-0.697,0.495,-47.07,2.40,-482.29
11.954317,-0.217,-0.729,0.263,-49.43,2.85,-482.30
11.966527,-0.089,-0.673,0.380,-51.63,3.03,-482.52
11.978734,-0.031,-0.518,0.340,-52.48,2.36,-482.67
11.990908,-0.097,-0.443,0.301,-54.48,2.71,-482.13
12.003088,-0.262,-0.580,0.420,-55.80,3.32,-481.35
12.015226,-0.729,0.254,0.160,-49.78,9.51,-481.38
12.027405,-0.644,-7.887,4.153,-44.67,12.79,-481.32
12.039508,0.073,-0.112,1.238,-38.83,11.10,-481.46
12.051616,0.053,-0.395,0.849,-41.84,9.49,-480.78
12.063769,0.062,-0.357,0.357,-41.96,7.51,-480.59
12.075911,-0.035,-0.775,0.855,-41.44,5.07,-479.94
12.088085,-0.012,-0.312,0.541,-42.32,2.56,-479.08
12.10027,0.031,-0.591,0.536,-44.86,0.44,-477.78
12.112393,-0.008,-0.653,0.380,-45.94,-1.61,-476.34
12.124588,-0.045,-0.575,0.299,-47.82,-2.85,-475.18
12.136837,-0.073,-0.435,0.355,-50.08,-3.68,-473.91
12.148979,-0.122,-0.610,0.236,-52.38,-4.41,-472.77
12.161134,-0.129,-1.082,0.244,-54.55,-4.42,-471.94
12.173266,-0.088,-1.281,0.234,-55.41,-4.28,-470.97
12.185388,-0.107,-1.417,0.223,-57.17,-3.84,-469.99
12.197576,-0.092,-0.810,0.252,-58.06,-3.15,-469.13
12.209751,-0.150,-0.830,0.169,-59.45,-2.42,-468.42
12.221933,-0.133,-0.526,0.155,-60.32,-1.58,-467.71
12.23412,-0.167,-0.222,0.141,-61.11,-0.39,-467.37
12.246283,-0.169,-0.996,0.282,-62.11,0.17,-467.24
12.258396,-0.073,-1.323,0.395,-62.04,0.81,-467.15
12.270594,-0.158,-0.831,0.525,-61.11,0.96,-467.22
12.282736,-0.075,-0.579,0.542,-59.80,1.36,-467.39
12.294989,-0.067,-0.605,0.446,-59.52,1.75,-467.47
12.307173,-0.114,-0.663,0.435,-59.64,2.27,-467.53
12.319346,-0.110,-0.711,0.450,-59.77,2.64,-467.68
12.331513,-0.131,-0.756,0.467,-59.78,2.91,-467.74
12.343656,-0.126,-0.766,0.435,-59.89,3.28,-467.77
12.3559,-0.125,-0.746,0.428,-59.86,3.64,-467.80
12.368089,-0.116,-0.728,0.459,-59.54,3.98,-467.84
12.380247,-0.108,-0.717,0.454,-59.22,4.30,-467.85
12.392456,-0.108,-0.716,0.443,-58.96,4.65,-467.84
12.404663,-0.112,-0.715,0.449,-58.68,4.98,-467.83
12.416912,-0.120,-0.733,0.474,-58.27,5.28,-467.82
12.429098,-0.113,-0.721,0.483,-57.86,5.51,-467.83
12.441256,-0.121,-0.725,0.477,-57.64,5.71,-467.83
12.453462,-0.121,-0.725,0.475,-57.54,5.89,-467.85
12.465633,-0.111,-0.721,0.473,-57.52,6.00,-467.89
12.477792,-0.109,-0.717,0.462,-57.56,6.06,-467.94
12.48998,-0.107,-0.723,0.453,-57.66,6.09,-468.00
12.502119,-0.107,-0.724,0.459,-57.72,6.11,-468.05
12.514272,-0.100,-0.725,0.460,-57.76,6.08,-468.10
12.526472,-0.113,-0.739,0.451,-57.86,6.07,-468.14
12.538662,-0.078,-0.673,0.441,-57.90,6.06,-468.18
12.550901,-0.253,-1.062,0.533,-58.11,6.07,-468.18
12.563076,-0.099,-0.724,0.517,-57.82,5.65,-468.23
12.575246,0.012,-0.549,0.320,-57.83,5.62,-468.28
12.587432,-0.035,-0.577,0.413,-57.77,5.73,-468.31
12.599609,-0.124,-0.761,0.483,-57.94,5.88,-468.32
12.611821,-0.148,-0.852,0.485,-57.99,5.83,-468.33
12.62402,-0.110,-0.781,0.460,-57.85,5.80,-468.34
12.636166,-0.100,-0.741,0.448,-57.74,5.86,-468.35
12.648314,-0.087,-0.694,0.456,-57.64,5.91,-468.36
12.660522,-0.079,-0.684,0.455,-57.65,5.94,-468.38
12.672685,-0.098,-0.728,0.454,-57.71,5.97,-468.40
12.684859,-0.112,-0.756,0.459,-57.77,6.00,-468.43
12.697109,-0.116,-0.761,0.459,-57.82,5.99,-468.46
12.709292,-0.107,-0.759,0.458,-57.88,5.98,-468.49
12.721447,-0.098,-0.744,0.456,-57.93,5.97,-468.53
12.733633,-0.088,-0.726,0.446,-58.00,5.92,-468.55
12.74579,-0.088,-0.729,0.437,-58.09,5.90,-468.56
12.758005,-0.091,-0.733,0.440,-58.17,5.90,-468.59
12.770205,-0.100,-0.740,0.453,-58.17,5.90,-468.60
12.782353,-0.096,-0.750,0.455,-58.20,5.89,-468.62
12.794556,-0.096,-0.753,0.451,-58.24,5.88,-468.65
12.80675,-0.087,-0.732,0.451,-58.25,5.86,-468.67
12.818972,-0.094,-0.740,0.448,-58.27,5.86,-468.68
12.831171,-0.089,-0.734,0.448,-58.28,5.86,-468.70
12.84334,-0.087,-0.735,0.447,-58.29,5.84,-468.71
12.855532,-0.093,-0.741,0.449,-58.31,5.82,-468.73
12.869896,-0.086,-0.740,0.454,-58.32,5.78,-468.75
12.882136,-0.085,-0.737,0.452,-58.33,5.75,-468.77
12.894341,-0.094,-0.747,0.447,-58.39,5.73,-468.78
12.906497,-0.088,-0.743,0.449,-58.43,5.70,-468.81
12.918681,-0.086,-0.741,0.450,-58.46,5.66,-468.82
12.930895,-0.091,-0.743,0.450,-58.51,5.63,-468.84
12.943146,-0.082,-0.744,0.445,-58.57,5.60,-468.86
12.955348,-0.081,-0.741,0.443,-58.62,5.54,-468.88
12.96752,-0.082,-0.746,0.444,-58.66,5.52,-468.90
12.981909,-0.081,-0.738,0.443,-58.67,5.48,-468.92
12.994172,-0.086,-0.741,0.442,-58.71,5.47,-468.94
13.006366,-0.085,-0.745,0.445,-58.75,5.45,-468.96
13.018596,-0.079,-0.748,0.449,-58.77,5.42,-468.97
13.030801,-0.078,-0.748,0.444,-58.79,5.37,-468.99
13.04302,-0.082,-0.750,0.445,-58.83,5.35,-469.00
13.055195,-0.084,-0.745,0.441,-58.84,5.33,-469.01
13.067389,-0.082,-0.742,0.445,-58.85,5.32,-469.03
13.079573,-0.084,-0.748,0.442,-58.87,5.31,-469.04
13.091749,-0.085,-0.754,0.448,-58.90,5.29,-469.06
13.103945,-0.076,-0.744,0.443,-58.91,5.25,-469.07
13.116189,-0.079,-0.757,0.447,-58.95,5.22,-469.08
13.128388,-0.079,-0.751,0.443,-58.95,5.21,-469.10
13.140575,-0.075,-0.739,0.440,-58.97,5.17,-469.12
13.152788,-0.072,-0.740,0.435,-59.01,5.15,-469.13
13.164968,-0.080,-0.749,0.440,-59.06,5.15,-469.15
13.177225,-0.082,-0.752,0.448,-59.08,5.12,-469.17
13.189415,-0.083,-0.759,0.440,-59.11,5.10,-469.18
13.201596,-0.078,-0.759,0.440,-59.16,5.07,-469.19
13.213776,-0.076,-0.743,0.439,-59.17,5.04,-469.20
13.225968,-0.073,-0.743,0.437,-59.18,4.99,-469.22
13.238174,-0.076,-0.752,0.442,-59.20,4.98,-469.23
13.250322,-0.068,-0.732,0.439,-59.19,4.94,-469.25
13.262473,-0.082,-0.760,0.442,-59.24,4.92,-469.26
13.27467,-0.082,-0.759,0.441,-59.24,4.89,-469.27
13.286873,-0.047,-0.696,0.413,-59.27,4.84,-469.30
13.299137,-0.060,-0.716,0.428,-59.29,4.87,-469.31
13.311325,-0.080,-0.748,0.449,-59.34,4.89,-469.32
13.32348,-0.100,-0.803,0.460,-59.37,4.83,-469.32
13.335689,-0.095,-0.811,0.450,-59.40,4.77,-469.33
13.3479,-0.074,-0.764,0.438,-59.38,4.74,-469.34
13.360111,-0.059,-0.724,0.434,-59.35,4.70,-469.36
13.372306,-0.063,-0.724,0.428,-59.38,4.70,-469.37
13.384488,-0.065,-0.728,0.432,-59.42,4.71,-469.39
13.396689,-0.067,-0.741,0.435,-59.45,4.68,-469.40
13.408893,-0.077,-0.750,0.457,-59.49,4.65,-469.41
13.421109,-0.063,-0.753,0.430,-59.49,4.65,-469.43
