arduino_time_s,receive_time_s,imu1_acc_x,imu1_acc_y,imu1_acc_z,imu1_gx,imu1_gy,imu1_gz,imu2_acc_x,imu2_acc_y,imu2_acc_z,imu2_gx,imu2_gy,imu2_gz
0.0,1764971602.617721,0.056,0.013,1.036,1.0,-3.26,-11.46,0.021,0.043,1.01,2.48,-1.58,-11.61
0.017999,1764971602.618678,0.058,0.022,1.041,1.0,-3.25,-11.46,0.029,0.057,1.012,2.45,-1.59,-11.61
0.034999,1764971602.6195211,0.055,0.023,1.017,1.01,-3.24,-11.46,0.022,0.051,1.004,2.43,-1.58,-11.61
0.053,1764971602.620157,0.054,0.006,1.014,1.0,-3.23,-11.46,0.02,0.04,1.007,2.39,-1.58,-11.6
0.071,1764971602.620638,0.063,0.015,1.007,1.0,-3.23,-11.46,0.029,0.043,1.007,2.4,-1.58,-11.6
0.089,1764971602.621206,0.062,0.029,1.005,1.01,-3.22,-11.46,0.029,0.049,1.0,2.41,-1.59,-11.6
0.107,1764971602.6217449,0.051,0.017,1.0,1.0,-3.21,-11.46,0.021,0.045,1.001,2.41,-1.58,-11.6
0.125,1764971602.622407,0.057,0.009,0.997,0.99,-3.22,-11.46,0.024,0.039,0.996,2.43,-1.58,-11.6
0.142999,1764971602.623308,0.063,0.02,1.003,1.0,-3.22,-11.46,0.03,0.048,0.993,2.45,-1.58,-11.6
0.161,1764971602.6237519,0.06,0.02,0.999,1.0,-3.23,-11.46,0.031,0.049,0.986,2.46,-1.59,-11.6
0.179006,1764971602.624154,0.052,0.018,1.004,0.99,-3.22,-11.46,0.023,0.04,0.997,2.45,-1.58,-11.6
0.196999,1764971602.624562,0.056,0.013,1.002,0.99,-3.22,-11.46,0.024,0.043,0.991,2.46,-1.57,-11.6
0.214996,1764971602.624973,0.062,0.023,1.006,1.0,-3.23,-11.46,0.034,0.047,0.991,2.46,-1.58,-11.6
0.233,1764971602.625386,0.057,0.017,1.006,1.0,-3.23,-11.46,0.025,0.046,0.99,2.46,-1.58,-11.6
0.251,1764971602.625791,0.05,0.018,1.006,1.0,-3.22,-11.46,0.024,0.037,0.995,2.46,-1.58,-11.6
0.269,1764971602.6261609,0.057,0.016,1.005,0.99,-3.22,-11.46,0.027,0.046,0.998,2.47,-1.58,-11.6
0.285996,1764971602.626525,0.062,0.022,1.007,1.0,-3.22,-11.46,0.03,0.048,1.0,2.47,-1.58,-11.6
0.302999,1764971602.626883,0.058,0.017,1.005,1.0,-3.22,-11.46,0.026,0.036,0.994,2.48,-1.58,-11.6
0.319999,1764971602.6272352,0.052,0.014,0.999,1.0,-3.22,-11.46,0.024,0.044,0.993,2.49,-1.58,-11.6
0.336999,1764971602.62784,0.057,0.021,1.005,1.0,-3.22,-11.46,0.029,0.045,0.989,2.5,-1.58,-11.59
0.354,1764971602.6282141,0.065,0.018,1.007,1.0,-3.23,-11.46,0.036,0.045,0.988,2.5,-1.59,-11.59
0.371999,1764971602.628581,0.054,0.017,1.003,1.0,-3.22,-11.46,0.025,0.041,0.994,2.5,-1.58,-11.6
0.389999,1764971602.62892,0.055,0.02,1.005,1.0,-3.22,-11.46,0.026,0.046,0.995,2.51,-1.58,-11.6
0.407999,1764971602.6293812,0.059,0.021,1.006,1.0,-3.22,-11.46,0.03,0.049,0.994,2.51,-1.58,-11.59
0.425999,1764971602.629855,0.06,0.02,1.009,1.0,-3.23,-11.46,0.03,0.043,0.995,2.51,-1.59,-11.59
0.443,1764971602.630263,0.055,0.016,1.008,1.0,-3.22,-11.46,0.029,0.04,0.996,2.5,-1.59,-11.59
0.46,1764971602.630661,0.054,0.018,1.007,1.01,-3.22,-11.46,0.029,0.043,0.996,2.51,-1.59,-11.59
0.476999,1764971602.631062,0.058,0.022,1.01,1.01,-3.22,-11.47,0.03,0.051,0.996,2.52,-1.6,-11.59
0.493999,1764971602.6314502,0.058,0.018,1.005,1.01,-3.22,-11.47,0.032,0.042,0.995,2.51,-1.6,-11.6
0.511996,1764971602.631818,0.057,0.013,1.005,1.01,-3.22,-11.47,0.022,0.04,0.996,2.51,-1.59,-11.59
0.529999,1764971602.632146,0.056,0.019,1.002,1.01,-3.22,-11.47,0.026,0.049,0.995,2.52,-1.59,-11.59
0.547,1764971602.632478,0.06,0.019,1.008,1.0,-3.22,-11.47,0.029,0.045,0.996,2.51,-1.59,-11.59
0.564999,1764971602.632807,0.057,0.017,1.007,1.0,-3.22,-11.47,0.028,0.045,0.998,2.51,-1.59,-11.59
0.581999,1764971602.6331441,0.058,0.017,1.007,1.0,-3.22,-11.48,0.021,0.042,0.995,2.51,-1.58,-11.59
0.598999,1764971602.6334798,0.059,0.022,1.007,1.01,-3.22,-11.48,0.027,0.049,0.997,2.52,-1.58,-11.59
0.615996,1764971602.6338098,0.059,0.021,1.006,1.01,-3.22,-11.48,0.029,0.047,0.994,2.52,-1.58,-11.59
0.633999,1764971602.634142,0.057,0.017,1.007,1.01,-3.23,-11.48,0.029,0.042,0.993,2.52,-1.59,-11.59
0.652,1764971602.634478,0.057,0.016,1.005,1.01,-3.23,-11.48,0.029,0.043,0.993,2.52,-1.59,-11.59
0.669998,1764971602.634901,0.059,0.016,1.004,1.01,-3.23,-11.48,0.029,0.044,0.992,2.52,-1.59,-11.59
0.687,1764971602.6352289,0.056,0.016,1.005,1.0,-3.22,-11.48,0.026,0.046,0.995,2.53,-1.58,-11.59
0.704999,1764971602.6355572,0.06,0.015,1.007,1.0,-3.23,-11.48,0.026,0.043,0.998,2.52,-1.58,-11.59
0.722,1764971602.635874,0.059,0.017,1.001,1.0,-3.23,-11.48,0.034,0.05,0.996,2.53,-1.59,-11.59
0.738999,1764971602.636205,0.062,0.018,1.005,1.0,-3.24,-11.48,0.03,0.045,0.992,2.53,-1.59,-11.59
0.756001,1764971602.636527,0.056,0.018,1.004,1.0,-3.24,-11.48,0.027,0.045,0.995,2.53,-1.59,-11.59
0.773999,1764971602.636853,0.061,0.017,1.006,1.0,-3.24,-11.48,0.026,0.044,0.994,2.53,-1.59,-11.59
0.792,1764971602.6371799,0.057,0.017,1.006,1.0,-3.24,-11.49,0.029,0.044,0.993,2.54,-1.59,-11.59
0.808999,1764971602.637502,0.06,0.019,1.009,1.0,-3.24,-11.49,0.028,0.047,0.99,2.54,-1.59,-11.59
0.825999,1764971602.63787,0.056,0.022,1.007,1.0,-3.24,-11.49,0.027,0.041,0.996,2.54,-1.6,-11.59
0.843,1764971602.638153,0.057,0.017,1.007,1.0,-3.24,-11.49,0.029,0.045,0.998,2.54,-1.6,-11.59
0.859999,1764971602.638456,0.057,0.015,1.007,1.0,-3.24,-11.49,0.031,0.045,0.995,2.55,-1.6,-11.59
0.878,1764971602.6387808,0.058,0.014,1.003,0.99,-3.24,-11.49,0.031,0.044,0.995,2.55,-1.6,-11.59
0.896,1764971602.639081,0.054,0.02,1.002,0.99,-3.24,-11.49,0.027,0.045,0.991,2.55,-1.6,-11.59
0.913997,1764971602.639359,0.059,0.017,1.001,1.0,-3.24,-11.49,0.028,0.044,0.998,2.55,-1.6,-11.59
0.930999,1764971602.639648,0.059,0.015,1.008,0.99,-3.24,-11.49,0.029,0.044,0.995,2.54,-1.6,-11.59
0.949,1764971602.6399229,0.06,0.018,1.006,0.99,-3.24,-11.49,0.033,0.042,1.0,2.54,-1.61,-11.59
0.966996,1764971602.640209,0.055,0.017,1.005,0.99,-3.24,-11.49,0.024,0.042,0.995,2.53,-1.6,-11.59
0.984,1764971602.640496,0.059,0.021,1.01,0.99,-3.24,-11.49,0.029,0.049,0.995,2.54,-1.61,-11.59
1.000999,1764971602.640772,0.061,0.019,1.006,0.99,-3.25,-11.49,0.03,0.039,0.992,2.54,-1.61,-11.59
1.017999,1764971602.641048,0.056,0.018,1.005,0.99,-3.24,-11.49,0.024,0.041,0.994,2.53,-1.6,-11.59
1.035999,1764971602.641325,0.056,0.019,1.001,0.99,-3.24,-11.49,0.027,0.04,0.993,2.53,-1.61,-11.59
1.054001,1764971602.641597,0.054,0.02,1.006,0.99,-3.24,-11.49,0.028,0.047,0.993,2.53,-1.61,-11.59
1.072,1764971602.641887,0.061,0.019,1.006,0.99,-3.24,-11.5,0.031,0.042,0.99,2.53,-1.61,-11.59
1.089999,1764971602.6424189,0.057,0.019,1.005,1.0,-3.24,-11.5,0.03,0.043,0.991,2.53,-1.61,-11.59
1.108,1764971602.6427782,0.055,0.015,1.004,1.0,-3.24,-11.5,0.029,0.041,0.993,2.53,-1.61,-11.59
1.126,1764971602.643054,0.056,0.014,1.003,0.99,-3.24,-11.5,0.025,0.044,0.993,2.53,-1.61,-11.59
1.144,1764971602.6433249,0.058,0.014,1.003,0.99,-3.24,-11.5,0.031,0.042,0.992,2.53,-1.61,-11.59
1.161999,1764971602.643581,0.057,0.015,1.003,0.99,-3.24,-11.5,0.028,0.045,0.997,2.53,-1.61,-11.59
1.179998,1764971602.643826,0.063,0.018,1.007,0.99,-3.24,-11.5,0.03,0.043,0.994,2.53,-1.61,-11.59
1.197,1764971602.644063,0.057,0.018,1.001,0.99,-3.24,-11.5,0.03,0.046,0.994,2.53,-1.61,-11.59
1.215,1764971602.6443121,0.06,0.014,1.006,0.98,-3.25,-11.5,0.025,0.048,0.993,2.53,-1.61,-11.59
1.233,1764971602.644556,0.056,0.02,1.005,0.99,-3.25,-11.5,0.027,0.044,0.995,2.53,-1.61,-11.59
1.251,1764971602.6447942,0.058,0.018,1.009,0.99,-3.25,-11.49,0.025,0.046,0.997,2.54,-1.61,-11.59
1.269,1764971602.645036,0.057,0.019,1.007,0.99,-3.25,-11.49,0.03,0.044,0.991,2.54,-1.61,-11.59
1.287,1764971602.6452749,0.055,0.018,1.003,0.99,-3.24,-11.49,0.029,0.043,0.993,2.53,-1.61,-11.59
1.305,1764971602.645519,0.056,0.017,1.005,0.99,-3.24,-11.49,0.028,0.046,0.997,2.54,-1.61,-11.59
1.323001,1764971602.645761,0.058,0.019,1.011,0.99,-3.24,-11.5,0.029,0.043,0.996,2.53,-1.61,-11.58
1.341,1764971602.646004,0.062,0.019,1.003,0.99,-3.24,-11.5,0.028,0.042,0.992,2.53,-1.61,-11.58
1.359,1764971602.646245,0.058,0.015,1.009,0.99,-3.24,-11.5,0.028,0.042,0.992,2.53,-1.61,-11.58
1.377,1764971602.646488,0.06,0.02,1.004,1.0,-3.25,-11.5,0.029,0.044,0.991,2.53,-1.61,-11.59
1.393999,1764971602.6467268,0.058,0.021,1.003,1.0,-3.25,-11.5,0.026,0.045,0.991,2.53,-1.61,-11.59
1.410999,1764971602.646969,0.057,0.018,1.004,1.0,-3.25,-11.51,0.027,0.042,0.995,2.53,-1.61,-11.59
1.428999,1764971602.647209,0.059,0.015,1.005,1.0,-3.25,-11.51,0.031,0.044,0.993,2.53,-1.61,-11.59
1.446999,1764971602.647448,0.061,0.016,1.007,1.0,-3.26,-11.51,0.029,0.045,0.996,2.53,-1.61,-11.59
1.465,1764971602.648035,0.058,0.016,1.001,0.99,-3.26,-11.51,0.026,0.046,0.992,2.53,-1.61,-11.59
1.483,1764971602.6482718,0.053,0.017,1.006,0.99,-3.25,-11.51,0.028,0.045,0.999,2.53,-1.61,-11.59
1.501,1764971602.648515,0.058,0.021,1.006,0.99,-3.25,-11.51,0.031,0.045,0.991,2.53,-1.61,-11.59
1.519,1764971602.648757,0.057,0.015,1.003,0.99,-3.25,-11.51,0.027,0.046,0.994,2.53,-1.61,-11.59
1.536999,1764971602.648994,0.058,0.018,1.003,0.99,-3.25,-11.51,0.028,0.045,0.99,2.53,-1.61,-11.59
1.554996,1764971602.649236,0.06,0.016,1.004,0.99,-3.25,-11.52,0.027,0.045,0.996,2.53,-1.61,-11.59
1.573,1764971602.649479,0.058,0.022,1.009,0.99,-3.25,-11.51,0.029,0.044,0.997,2.53,-1.61,-11.59
1.590999,1764971602.649719,0.06,0.017,1.008,0.99,-3.26,-11.51,0.028,0.045,0.995,2.53,-1.62,-11.59
1.608999,1764971602.6499588,0.054,0.017,1.007,0.99,-3.25,-11.52,0.026,0.042,0.993,2.53,-1.61,-11.59
1.626997,1764971602.650197,0.06,0.018,1.006,0.99,-3.26,-11.51,0.031,0.045,0.995,2.53,-1.62,-11.59
1.645001,1764971602.65044,0.061,0.018,1.002,0.99,-3.26,-11.51,0.032,0.047,0.997,2.53,-1.62,-11.58
1.661999,1764971602.650681,0.057,0.017,1.006,0.98,-3.26,-11.51,0.029,0.044,0.996,2.53,-1.62,-11.58
1.679,1764971602.650918,0.056,0.016,1.007,0.98,-3.26,-11.51,0.029,0.043,0.997,2.54,-1.62,-11.58
1.696996,1764971602.65116,0.059,0.017,1.007,0.98,-3.26,-11.51,0.026,0.047,0.994,2.54,-1.62,-11.58
1.714996,1764971602.6514041,0.062,0.013,1.007,0.98,-3.27,-11.51,0.027,0.042,0.994,2.54,-1.62,-11.58
1.732999,1764971602.651642,0.055,0.019,1.009,0.98,-3.26,-11.51,0.027,0.044,0.998,2.54,-1.61,-11.58
1.750998,1764971602.651885,0.056,0.018,1.005,0.98,-3.26,-11.51,0.024,0.049,0.994,2.55,-1.61,-11.58
1.769,1764971602.652127,0.06,0.02,1.004,0.98,-3.26,-11.51,0.028,0.044,0.995,2.55,-1.61,-11.58
1.786997,1764971602.652364,0.054,0.016,1.004,0.98,-3.26,-11.51,0.031,0.042,0.994,2.55,-1.61,-11.58
1.803999,1764971602.652608,0.057,0.014,1.004,0.97,-3.25,-11.51,0.027,0.05,0.995,2.55,-1.61,-11.58
1.820999,1764971602.652847,0.055,0.018,1.004,0.97,-3.25,-11.51,0.029,0.046,0.992,2.56,-1.61,-11.58
1.839,1764971602.65309,0.06,0.014,1.006,0.97,-3.26,-11.52,0.027,0.049,0.997,2.56,-1.61,-11.58
1.857,1764971602.653327,0.058,0.019,1.006,0.97,-3.26,-11.52,0.028,0.045,0.996,2.56,-1.61,-11.58
1.875,1764971602.6535628,0.058,0.017,1.007,0.97,-3.26,-11.52,0.03,0.046,0.996,2.56,-1.61,-11.58
1.891999,1764971602.653801,0.054,0.018,1.008,0.97,-3.25,-11.52,0.027,0.046,0.996,2.57,-1.62,-11.58
1.908998,1764971602.6540391,0.057,0.02,1.008,0.98,-3.25,-11.52,0.026,0.04,0.993,2.56,-1.62,-11.58
1.926001,1764971602.654302,0.059,0.017,1.006,0.97,-3.26,-11.52,0.025,0.041,0.995,2.56,-1.61,-11.58
1.943997,1764971602.654557,0.058,0.022,1.005,0.98,-3.26,-11.52,0.034,0.043,0.993,2.56,-1.62,-11.58
1.962,1764971602.654804,0.053,0.019,1.005,0.98,-3.25,-11.52,0.029,0.05,0.993,2.57,-1.62,-11.58
1.98,1764971602.655046,0.058,0.015,1.002,0.98,-3.25,-11.51,0.026,0.042,0.995,2.56,-1.62,-11.58
1.998,1764971602.6552901,0.057,0.017,1.005,0.98,-3.25,-11.51,0.029,0.044,0.994,2.56,-1.62,-11.59
2.015999,1764971602.655534,0.062,0.021,1.007,0.98,-3.25,-11.51,0.026,0.046,0.995,2.56,-1.62,-11.59
2.033,1764971602.6577358,0.06,0.02,1.007,0.98,-3.26,-11.52,0.031,0.045,0.996,2.56,-1.62,-11.59
2.05,1764971602.674724,0.056,0.016,1.011,0.98,-3.25,-11.52,0.025,0.046,0.997,2.56,-1.62,-11.59
2.067,1764971602.691754,0.061,0.02,1.007,0.98,-3.26,-11.52,0.029,0.043,0.993,2.56,-1.62,-11.59
2.085,1764971602.709745,0.061,0.017,1.006,0.98,-3.26,-11.52,0.029,0.043,0.993,2.56,-1.62,-11.59
2.103,1764971602.727697,0.055,0.015,1.006,0.98,-3.26,-11.51,0.029,0.042,0.991,2.56,-1.63,-11.59
2.12,1764971602.744688,0.061,0.019,1.005,0.98,-3.26,-11.52,0.027,0.044,0.993,2.56,-1.63,-11.59
2.136999,1764971602.7616498,0.057,0.02,1.005,0.98,-3.26,-11.51,0.029,0.049,0.994,2.56,-1.63,-11.58
2.154,1764971602.778682,0.058,0.018,1.005,0.99,-3.26,-11.51,0.028,0.043,0.996,2.56,-1.63,-11.58
2.172,1764971602.7966652,0.057,0.017,1.003,0.99,-3.26,-11.51,0.026,0.047,0.996,2.57,-1.63,-11.59
2.19,1764971602.814687,0.059,0.017,1.007,0.99,-3.26,-11.51,0.03,0.044,0.997,2.57,-1.63,-11.59
2.208,1764971602.832682,0.063,0.022,1.007,0.99,-3.27,-11.51,0.03,0.045,0.992,2.57,-1.63,-11.59
2.225996,1764971602.850674,0.057,0.017,1.007,0.99,-3.26,-11.51,0.027,0.043,0.995,2.56,-1.62,-11.59
2.244001,1764971602.868732,0.057,0.016,1.005,0.99,-3.26,-11.52,0.03,0.042,0.993,2.56,-1.63,-11.59
2.262,1764971602.886624,0.059,0.02,1.008,0.99,-3.26,-11.52,0.033,0.048,0.996,2.57,-1.63,-11.59
2.279,1764971602.9036531,0.059,0.021,1.003,0.99,-3.26,-11.52,0.031,0.045,0.994,2.57,-1.64,-11.6
2.297,1764971602.921777,0.058,0.012,1.004,0.99,-3.26,-11.52,0.027,0.045,0.998,2.57,-1.64,-11.6
2.315,1764971602.939557,0.06,0.02,1.004,0.99,-3.27,-11.52,0.026,0.043,0.996,2.56,-1.63,-11.6
2.332,1764971602.9565928,0.054,0.016,1.005,0.99,-3.26,-11.52,0.024,0.048,0.995,2.57,-1.63,-11.6
2.35,1764971602.9747462,0.057,0.021,1.003,0.99,-3.26,-11.52,0.027,0.047,0.992,2.57,-1.63,-11.6
2.367001,1764971602.991571,0.058,0.019,1.006,1.0,-3.26,-11.52,0.028,0.046,0.995,2.57,-1.62,-11.59
2.384996,1764971603.0096178,0.055,0.018,1.005,1.0,-3.26,-11.52,0.03,0.046,0.997,2.57,-1.62,-11.59
2.402997,1764971603.0276852,0.057,0.018,1.003,1.0,-3.26,-11.52,0.029,0.048,0.996,2.57,-1.63,-11.59
2.420999,1764971603.04653,0.056,0.021,1.003,1.0,-3.25,-11.52,0.028,0.042,0.992,2.57,-1.62,-11.59
2.438999,1764971603.063515,0.059,0.02,1.002,1.0,-3.25,-11.52,0.025,0.045,0.996,2.57,-1.62,-11.59
2.456999,1764971603.081486,0.057,0.019,1.004,1.01,-3.25,-11.52,0.03,0.042,0.995,2.57,-1.62,-11.6
2.474,1764971603.098498,0.057,0.018,1.007,1.01,-3.25,-11.52,0.028,0.043,0.997,2.56,-1.62,-11.6
2.492,1764971603.116533,0.055,0.017,1.008,1.0,-3.25,-11.52,0.025,0.044,0.996,2.56,-1.61,-11.6
2.509997,1764971603.134447,0.057,0.016,1.006,1.0,-3.25,-11.52,0.028,0.043,0.993,2.56,-1.61,-11.6
2.527997,1764971603.152511,0.059,0.017,1.009,1.0,-3.25,-11.52,0.026,0.045,0.996,2.56,-1.61,-11.6
2.546,1764971603.1704772,0.057,0.016,1.001,1.0,-3.25,-11.52,0.028,0.043,0.999,2.56,-1.61,-11.59
2.563997,1764971603.188504,0.055,0.02,1.002,1.0,-3.25,-11.52,0.031,0.048,0.993,2.57,-1.61,-11.59
2.581996,1764971603.20649,0.06,0.016,1.008,1.0,-3.25,-11.52,0.03,0.048,0.999,2.57,-1.61,-11.59
2.6,1764971603.224515,0.061,0.018,1.007,0.99,-3.25,-11.52,0.025,0.044,0.996,2.56,-1.61,-11.6
2.618,1764971603.242356,0.053,0.016,1.005,0.99,-3.24,-11.52,0.03,0.048,0.994,2.57,-1.61,-11.6
2.635997,1764971603.260324,0.058,0.015,1.005,0.99,-3.24,-11.52,0.03,0.042,0.995,2.57,-1.62,-11.6
2.654,1764971603.278324,0.057,0.02,1.009,0.99,-3.25,-11.52,0.027,0.045,0.995,2.57,-1.62,-11.6
2.672001,1764971603.296313,0.057,0.02,1.007,0.99,-3.24,-11.52,0.028,0.046,0.995,2.57,-1.61,-11.6
2.689,1764971603.313366,0.057,0.017,1.006,0.99,-3.25,-11.51,0.031,0.043,0.997,2.57,-1.61,-11.6
2.706999,1764971603.331276,0.057,0.02,1.007,0.99,-3.24,-11.51,0.029,0.044,0.994,2.57,-1.62,-11.6
2.724999,1764971603.349359,0.058,0.018,1.007,0.99,-3.24,-11.51,0.029,0.043,0.996,2.56,-1.62,-11.6
2.742996,1764971603.367297,0.059,0.018,1.01,0.99,-3.24,-11.52,0.029,0.045,0.996,2.56,-1.62,-11.6
2.761,1764971603.385345,0.057,0.02,1.006,1.0,-3.24,-11.52,0.032,0.048,0.995,2.57,-1.63,-11.6
2.779,1764971603.403275,0.054,0.022,1.001,1.0,-3.24,-11.52,0.03,0.04,0.997,2.56,-1.63,-11.6
2.796999,1764971603.421385,0.058,0.016,1.008,1.0,-3.24,-11.52,0.027,0.047,0.994,2.56,-1.63,-11.6
2.815,1764971603.439337,0.057,0.017,1.007,1.0,-3.24,-11.52,0.029,0.045,0.994,2.56,-1.63,-11.6
2.832996,1764971603.4572,0.057,0.018,1.01,1.0,-3.24,-11.52,0.03,0.045,0.996,2.56,-1.63,-11.6
2.851,1764971603.4752798,0.056,0.019,1.006,1.0,-3.24,-11.52,0.032,0.048,0.996,2.56,-1.64,-11.6
2.869,1764971603.4932601,0.056,0.018,1.002,1.0,-3.24,-11.52,0.028,0.039,0.993,2.56,-1.64,-11.6
2.886999,1764971603.5112681,0.058,0.017,1.001,1.0,-3.24,-11.52,0.028,0.043,0.991,2.56,-1.63,-11.6
2.905,1764971603.5291579,0.058,0.021,1.007,1.01,-3.24,-11.52,0.032,0.043,0.993,2.56,-1.64,-11.6
2.921996,1764971603.546185,0.058,0.015,1.003,1.0,-3.24,-11.52,0.026,0.045,0.995,2.56,-1.63,-11.6
2.938999,1764971603.563113,0.056,0.016,1.004,1.0,-3.24,-11.52,0.028,0.046,0.993,2.56,-1.63,-11.6
2.956,1764971603.5808709,0.057,0.02,1.006,1.01,-3.23,-11.52,0.027,0.045,0.993,2.56,-1.63,-11.6
2.973,1764971603.597077,0.057,0.017,1.005,1.0,-3.23,-11.52,0.025,0.045,0.994,2.56,-1.62,-11.6
2.990999,1764971603.615144,0.06,0.016,1.009,1.0,-3.23,-11.52,0.032,0.042,0.995,2.55,-1.63,-11.6
3.008997,1764971603.633124,0.057,0.019,1.007,1.0,-3.23,-11.52,0.03,0.047,1.0,2.56,-1.63,-11.6
3.026999,1764971603.651146,0.06,0.019,1.007,1.0,-3.24,-11.53,0.03,0.045,0.991,2.56,-1.63,-11.6
3.044,1764971603.6681721,0.058,0.018,1.007,1.0,-3.24,-11.53,0.029,0.044,0.992,2.56,-1.63,-11.6
3.061,1764971603.684993,0.055,0.016,1.008,0.99,-3.24,-11.53,0.031,0.046,0.997,2.56,-1.63,-11.6
3.077999,1764971603.702034,0.058,0.019,1.008,1.0,-3.24,-11.53,0.03,0.044,0.996,2.56,-1.64,-11.6
3.094996,1764971603.7190201,0.058,0.019,1.005,1.0,-3.24,-11.53,0.027,0.041,0.994,2.56,-1.64,-11.6
3.112999,1764971603.736929,0.058,0.018,1.002,1.0,-3.24,-11.53,0.027,0.045,0.998,2.56,-1.64,-11.6
3.131,1764971603.7548969,0.058,0.017,1.007,1.0,-3.24,-11.53,0.027,0.042,0.996,2.55,-1.63,-11.6
3.149,1764971603.772852,0.06,0.018,1.007,0.99,-3.25,-11.53,0.033,0.045,0.997,2.56,-1.64,-11.6
3.165999,1764971603.789839,0.059,0.015,1.006,0.99,-3.25,-11.53,0.027,0.047,0.999,2.56,-1.63,-11.6
3.183,1764971603.8068328,0.057,0.019,1.005,0.99,-3.25,-11.53,0.02,0.043,0.995,2.56,-1.62,-11.6
3.2,1764971603.823821,0.057,0.016,1.007,0.99,-3.25,-11.53,0.03,0.045,0.994,2.56,-1.62,-11.6
3.217999,1764971603.841834,0.059,0.018,1.009,0.99,-3.25,-11.54,0.027,0.045,0.995,2.56,-1.62,-11.6
3.236,1764971603.8598442,0.058,0.017,1.003,0.99,-3.25,-11.53,0.025,0.044,0.994,2.56,-1.62,-11.61
3.253999,1764971603.877835,0.057,0.019,1.005,1.0,-3.25,-11.53,0.031,0.046,0.996,2.57,-1.62,-11.61
3.272,1764971603.895823,0.057,0.019,1.007,1.0,-3.25,-11.54,0.031,0.041,0.994,2.56,-1.62,-11.61
3.29,1764971603.91374,0.059,0.016,1.006,0.99,-3.25,-11.54,0.03,0.044,0.995,2.56,-1.62,-11.61
3.307,1764971603.930759,0.055,0.018,1.006,0.99,-3.25,-11.54,0.031,0.043,0.994,2.56,-1.63,-11.61
3.324,1764971603.9477692,0.059,0.019,1.007,1.0,-3.26,-11.54,0.026,0.046,0.995,2.56,-1.62,-11.61
3.340997,1764971603.964727,0.062,0.015,1.007,0.99,-3.26,-11.54,0.03,0.044,0.997,2.56,-1.62,-11.61
3.358999,1764971603.9828181,0.058,0.015,1.01,0.99,-3.26,-11.54,0.027,0.045,0.994,2.56,-1.62,-11.61
3.376998,1764971604.000782,0.061,0.015,1.01,0.99,-3.27,-11.54,0.025,0.045,0.998,2.56,-1.62,-11.61
3.395,1764971604.0187619,0.057,0.018,1.007,0.99,-3.26,-11.54,0.025,0.042,0.995,2.56,-1.61,-11.6
3.411999,1764971604.035667,0.056,0.017,1.006,0.99,-3.26,-11.54,0.026,0.04,0.988,2.55,-1.61,-11.6
3.428996,1764971604.0527081,0.057,0.017,1.001,0.98,-3.26,-11.54,0.027,0.044,0.989,2.56,-1.61,-11.6
3.446999,1764971604.070663,0.056,0.018,1.005,0.99,-3.26,-11.54,0.031,0.043,0.995,2.56,-1.61,-11.6
3.464999,1764971604.088734,0.058,0.016,1.004,0.99,-3.26,-11.54,0.033,0.048,0.995,2.56,-1.62,-11.6
3.483,1764971604.10671,0.059,0.02,1.007,0.99,-3.27,-11.54,0.029,0.046,0.991,2.56,-1.62,-11.6
3.501,1764971604.124654,0.056,0.018,1.001,0.99,-3.26,-11.54,0.026,0.044,0.993,2.56,-1.62,-11.61
3.519,1764971604.142658,0.056,0.02,1.007,0.99,-3.26,-11.54,0.029,0.042,0.997,2.56,-1.62,-11.61
3.536997,1764971604.1606138,0.058,0.018,1.007,0.99,-3.26,-11.54,0.032,0.046,0.998,2.56,-1.62,-11.61
3.554,1764971604.1775842,0.057,0.021,1.006,0.99,-3.26,-11.54,0.026,0.043,0.998,2.56,-1.62,-11.61
3.572,1764971604.195576,0.059,0.016,1.006,0.99,-3.26,-11.54,0.025,0.043,0.994,2.56,-1.62,-11.61
3.589999,1764971604.213571,0.058,0.015,1.004,0.99,-3.26,-11.54,0.03,0.051,0.99,2.57,-1.62,-11.61
3.607997,1764971604.2316532,0.061,0.018,1.007,0.99,-3.26,-11.54,0.029,0.047,0.997,2.57,-1.62,-11.61
3.626001,1764971604.249527,0.061,0.019,1.009,0.99,-3.27,-11.54,0.028,0.042,0.997,2.56,-1.62,-11.61
3.643999,1764971604.2675772,0.056,0.019,1.005,0.99,-3.26,-11.54,0.031,0.044,0.991,2.57,-1.62,-11.61
3.661996,1764971604.2856069,0.058,0.014,1.005,0.98,-3.26,-11.54,0.032,0.047,0.995,2.57,-1.63,-11.61
3.679999,1764971604.303584,0.057,0.018,1.004,0.98,-3.26,-11.54,0.024,0.044,0.991,2.57,-1.62,-11.61
3.697999,1764971604.321661,0.055,0.02,1.005,0.99,-3.26,-11.54,0.028,0.041,0.993,2.57,-1.63,-11.61
3.716,1764971604.3394618,0.056,0.018,1.002,0.99,-3.26,-11.54,0.029,0.042,0.996,2.56,-1.63,-11.6
3.733,1764971604.356392,0.061,0.023,1.009,0.99,-3.26,-11.54,0.03,0.042,0.995,2.56,-1.63,-11.61
3.751,1764971604.3744159,0.058,0.02,1.006,0.99,-3.26,-11.55,0.031,0.041,0.996,2.56,-1.63,-11.61
3.768999,1764971604.392373,0.059,0.021,1.003,1.0,-3.26,-11.55,0.026,0.043,0.995,2.56,-1.62,-11.61
3.785999,1764971604.4094982,0.058,0.018,1.008,1.0,-3.26,-11.55,0.031,0.049,0.995,2.56,-1.63,-11.61
3.803999,1764971604.427441,0.054,0.019,1.002,1.0,-3.25,-11.55,0.027,0.039,0.991,2.56,-1.63,-11.61
3.821999,1764971604.4455218,0.058,0.018,1.003,1.0,-3.26,-11.55,0.029,0.04,0.996,2.55,-1.63,-11.61
3.84,1764971604.463516,0.058,0.016,1.003,1.0,-3.26,-11.55,0.027,0.046,0.999,2.55,-1.62,-11.61
3.858,1764971604.481378,0.062,0.016,1.007,1.0,-3.26,-11.55,0.032,0.049,0.993,2.56,-1.63,-11.61
3.876,1764971604.499454,0.055,0.014,1.004,1.0,-3.26,-11.55,0.028,0.041,0.996,2.55,-1.63,-11.6
3.893998,1764971604.5173068,0.056,0.017,1.007,0.99,-3.26,-11.55,0.03,0.047,0.994,2.55,-1.63,-11.6
3.912,1764971604.535363,0.059,0.018,1.002,1.0,-3.26,-11.55,0.029,0.042,0.992,2.55,-1.63,-11.6
3.928999,1764971604.552315,0.056,0.019,1.007,0.99,-3.25,-11.55,0.031,0.043,0.993,2.55,-1.63,-11.6
3.947,1764971604.5702589,0.055,0.014,1.003,0.99,-3.25,-11.55,0.029,0.045,0.994,2.55,-1.63,-11.6
3.965,1764971604.5883121,0.057,0.02,1.008,0.99,-3.25,-11.56,0.031,0.043,0.999,2.55,-1.63,-11.61
3.983,1764971604.606393,0.056,0.022,1.007,1.0,-3.24,-11.56,0.028,0.047,0.993,2.56,-1.63,-11.61
4.001,1764971604.6243489,0.057,0.018,1.007,1.0,-3.24,-11.56,0.031,0.042,0.995,2.55,-1.63,-11.61
4.018997,1764971604.6422138,0.054,0.016,1.008,1.0,-3.24,-11.56,0.027,0.043,0.997,2.55,-1.63,-11.61
4.036999,1764971604.660243,0.057,0.02,1.006,1.0,-3.23,-11.56,0.027,0.044,0.992,2.55,-1.63,-11.61
4.054996,1764971604.67818,0.055,0.021,1.003,1.0,-3.23,-11.55,0.026,0.045,0.995,2.55,-1.63,-11.61
4.073,1764971604.6961842,0.059,0.015,1.008,1.0,-3.23,-11.56,0.03,0.043,0.995,2.55,-1.63,-11.61
4.091,1764971604.714303,0.055,0.016,1.008,1.0,-3.23,-11.56,0.025,0.044,0.993,2.55,-1.63,-11.61
4.108999,1764971604.7322361,0.058,0.019,1.008,1.0,-3.24,-11.56,0.029,0.043,0.997,2.55,-1.63,-11.61
4.126999,1764971604.750071,0.06,0.02,1.005,1.0,-3.24,-11.56,0.034,0.046,0.995,2.55,-1.64,-11.61
4.144,1764971604.76712,0.058,0.019,1.006,1.0,-3.24,-11.56,0.028,0.048,0.996,2.55,-1.64,-11.61
4.160999,1764971604.78406,0.055,0.016,1.007,1.0,-3.23,-11.56,0.028,0.044,0.996,2.55,-1.64,-11.61
4.178,1764971604.801043,0.056,0.02,1.01,1.0,-3.23,-11.56,0.03,0.048,0.994,2.56,-1.64,-11.61
4.194998,1764971604.818105,0.058,0.018,1.008,1.0,-3.23,-11.56,0.029,0.048,0.993,2.56,-1.65,-11.61
4.213,1764971604.8360891,0.056,0.014,1.006,1.0,-3.23,-11.57,0.031,0.042,0.993,2.56,-1.65,-11.61
4.230999,1764971604.8540878,0.058,0.016,1.002,1.0,-3.23,-11.57,0.025,0.046,0.996,2.56,-1.64,-11.61
4.249,1764971604.872084,0.06,0.016,1.007,0.99,-3.23,-11.57,0.029,0.049,0.994,2.57,-1.64,-11.61
4.267,1764971604.890026,0.062,0.017,1.01,0.99,-3.24,-11.57,0.028,0.043,0.996,2.56,-1.64,-11.61
4.284997,1764971604.908095,0.06,0.018,1.003,0.99,-3.25,-11.57,0.026,0.037,0.992,2.56,-1.64,-11.61
4.302,1764971604.924942,0.06,0.024,1.005,1.0,-3.25,-11.57,0.026,0.047,0.996,2.56,-1.64,-11.61
4.319,1764971604.941992,0.058,0.022,1.007,1.0,-3.26,-11.57,0.028,0.048,0.993,2.57,-1.63,-11.61
4.337,1764971604.959984,0.057,0.017,1.004,1.0,-3.25,-11.57,0.029,0.046,0.999,2.56,-1.63,-11.61
4.355,1764971604.977995,0.057,0.017,1.006,1.0,-3.25,-11.57,0.03,0.045,0.997,2.57,-1.63,-11.61
4.372999,1764971604.9959512,0.058,0.019,1.005,1.0,-3.25,-11.57,0.03,0.047,0.995,2.57,-1.63,-11.61
4.389999,1764971605.013263,0.057,0.019,1.006,1.0,-3.25,-11.57,0.033,0.045,0.997,2.57,-1.64,-11.61
4.406999,1764971605.0299678,0.057,0.015,1.005,1.0,-3.25,-11.57,0.032,0.044,0.997,2.57,-1.64,-11.61
4.424,1764971605.046952,0.054,0.018,1.002,0.99,-3.25,-11.57,0.028,0.041,0.994,2.57,-1.64,-11.61
4.441,1764971605.063935,0.061,0.015,1.007,0.99,-3.26,-11.58,0.031,0.045,0.995,2.57,-1.64,-11.61
4.459,1764971605.081943,0.057,0.019,1.004,1.0,-3.25,-11.58,0.031,0.048,0.996,2.57,-1.65,-11.61
4.476997,1764971605.099964,0.056,0.017,1.005,1.0,-3.25,-11.57,0.028,0.043,0.992,2.57,-1.65,-11.61
4.494997,1764971605.117932,0.061,0.016,1.005,1.0,-3.25,-11.58,0.029,0.042,0.991,2.57,-1.65,-11.61
4.513,1764971605.135839,0.059,0.02,1.004,1.0,-3.25,-11.58,0.029,0.046,0.992,2.57,-1.65,-11.61
4.53,1764971605.1527839,0.055,0.019,1.005,1.0,-3.25,-11.58,0.03,0.046,0.998,2.57,-1.65,-11.61
4.546996,1764971605.169827,0.056,0.018,1.007,1.0,-3.25,-11.58,0.032,0.043,0.995,2.57,-1.65,-11.61
4.563999,1764971605.18673,0.057,0.018,1.005,1.0,-3.25,-11.58,0.03,0.043,0.996,2.57,-1.66,-11.61
4.581999,1764971605.204865,0.055,0.016,1.001,0.99,-3.24,-11.58,0.029,0.048,0.993,2.57,-1.66,-11.61
4.599999,1764971605.2227252,0.057,0.021,1.005,1.0,-3.24,-11.58,0.024,0.046,0.993,2.57,-1.65,-11.6
4.616999,1764971605.239716,0.059,0.02,1.002,1.0,-3.24,-11.58,0.024,0.045,0.994,2.57,-1.64,-11.61
4.634,1764971605.257557,0.06,0.016,1.006,1.0,-3.25,-11.59,0.032,0.045,0.998,2.57,-1.64,-11.61
4.651,1764971605.274438,0.059,0.022,1.008,1.0,-3.25,-11.59,0.032,0.045,0.994,2.57,-1.65,-11.61
4.668001,1764971605.290687,0.056,0.019,1.008,1.0,-3.25,-11.59,0.033,0.045,0.997,2.56,-1.65,-11.61
4.686,1764971605.308799,0.055,0.017,1.006,1.0,-3.25,-11.59,0.027,0.043,0.993,2.57,-1.65,-11.61
4.704,1764971605.326745,0.059,0.018,1.002,1.0,-3.25,-11.59,0.03,0.047,0.996,2.57,-1.65,-11.61
4.721997,1764971605.3446841,0.058,0.019,1.007,1.0,-3.26,-11.59,0.027,0.048,0.992,2.57,-1.65,-11.61
4.74,1764971605.362703,0.058,0.017,1.007,1.0,-3.26,-11.59,0.029,0.042,0.991,2.57,-1.65,-11.61
4.756999,1764971605.379748,0.058,0.013,1.006,0.99,-3.25,-11.59,0.028,0.045,0.995,2.57,-1.65,-11.61
4.774997,1764971605.397693,0.057,0.018,1.007,0.99,-3.26,-11.58,0.029,0.044,0.994,2.57,-1.64,-11.61
4.792999,1764971605.41564,0.055,0.019,1.002,0.99,-3.25,-11.58,0.033,0.043,0.997,2.57,-1.65,-11.61
4.810996,1764971605.433623,0.06,0.019,1.006,0.99,-3.26,-11.59,0.028,0.046,0.996,2.57,-1.65,-11.61
4.829,1764971605.451543,0.053,0.017,1.003,0.99,-3.26,-11.58,0.025,0.044,0.993,2.57,-1.64,-11.61
4.846,1764971605.468574,0.06,0.02,1.007,1.0,-3.26,-11.58,0.025,0.045,0.994,2.57,-1.64,-11.61
4.863,1764971605.485547,0.059,0.016,1.005,0.99,-3.26,-11.59,0.028,0.046,0.995,2.57,-1.64,-11.61
4.880996,1764971605.503593,0.056,0.018,1.001,0.99,-3.26,-11.59,0.028,0.043,0.997,2.57,-1.64,-11.6
4.899,1764971605.521594,0.06,0.014,1.001,0.99,-3.26,-11.59,0.031,0.045,0.995,2.57,-1.64,-11.6
4.917,1764971605.540295,0.058,0.019,1.007,0.99,-3.26,-11.59,0.029,0.042,0.998,2.57,-1.64,-11.61
4.935,1764971605.557478,0.059,0.016,1.01,0.99,-3.27,-11.59,0.03,0.043,0.995,2.57,-1.64,-11.6
4.953,1764971605.5755048,0.054,0.02,1.004,0.99,-3.26,-11.59,0.032,0.047,0.991,2.57,-1.65,-11.6
4.971,1764971605.593386,0.058,0.021,1.006,0.99,-3.27,-11.59,0.027,0.043,0.994,2.57,-1.65,-11.6
4.988,1764971605.610394,0.058,0.019,1.005,0.99,-3.27,-11.59,0.028,0.045,0.992,2.57,-1.65,-11.6
5.006,1764971605.6283982,0.057,0.013,1.004,0.99,-3.27,-11.59,0.029,0.042,0.995,2.57,-1.65,-11.6
5.023997,1764971605.646395,0.058,0.015,1.006,0.98,-3.27,-11.59,0.03,0.046,0.996,2.57,-1.65,-11.6
5.041997,1764971605.664418,0.056,0.018,1.005,0.99,-3.27,-11.59,0.032,0.051,0.996,2.58,-1.65,-11.6
5.06,1764971605.682414,0.06,0.018,1.01,0.98,-3.27,-11.59,0.028,0.043,0.995,2.57,-1.65,-11.6
5.078,1764971605.7004008,0.057,0.017,1.01,0.98,-3.27,-11.59,0.027,0.04,0.997,2.57,-1.65,-11.6
5.096,1764971605.71836,0.056,0.018,1.001,0.99,-3.26,-11.59,0.024,0.046,0.991,2.57,-1.65,-11.6
5.113999,1764971605.736396,0.057,0.017,1.006,0.99,-3.26,-11.59,0.031,0.048,0.994,2.58,-1.65,-11.6
5.132,1764971605.754357,0.055,0.016,1.007,0.98,-3.26,-11.59,0.031,0.044,0.999,2.58,-1.65,-11.6
5.15,1764971605.772369,0.059,0.02,1.003,0.99,-3.26,-11.59,0.028,0.04,0.997,2.57,-1.65,-11.6
5.168,1764971605.79037,0.061,0.018,1.007,0.99,-3.26,-11.59,0.027,0.044,0.993,2.57,-1.64,-11.6
5.184997,1764971605.809263,0.06,0.018,1.007,0.98,-3.27,-11.6,0.028,0.043,0.996,2.57,-1.64,-11.6
5.202999,1764971605.8253162,0.059,0.014,1.009,0.98,-3.27,-11.6,0.028,0.041,0.996,2.57,-1.64,-11.6
5.221,1764971605.8432431,0.056,0.019,1.009,0.98,-3.27,-11.6,0.031,0.043,0.998,2.57,-1.64,-11.6
5.239,1764971605.8613708,0.061,0.015,1.006,0.98,-3.27,-11.6,0.03,0.045,0.992,2.57,-1.65,-11.6
5.257,1764971605.879356,0.057,0.019,1.007,0.98,-3.26,-11.6,0.031,0.048,0.994,2.57,-1.65,-11.6
5.275,1764971605.89726,0.057,0.015,1.003,0.98,-3.27,-11.6,0.029,0.044,0.998,2.57,-1.65,-11.6
5.293,1764971605.9151978,0.059,0.022,1.008,0.98,-3.27,-11.6,0.029,0.043,0.995,2.56,-1.65,-11.6
5.311004,1764971605.933263,0.063,0.021,1.007,0.99,-3.27,-11.6,0.029,0.044,0.999,2.56,-1.65,-11.6
5.329,1764971605.9512079,0.059,0.02,1.007,0.99,-3.27,-11.6,0.03,0.045,0.994,2.56,-1.66,-11.6
5.346997,1764971605.969246,0.057,0.015,1.0,0.99,-3.27,-11.6,0.027,0.043,0.996,2.56,-1.65,-11.6
5.365,1764971605.9871712,0.059,0.017,1.005,0.99,-3.27,-11.6,0.031,0.044,0.996,2.56,-1.65,-11.6
5.382996,1764971606.005253,0.056,0.02,1.002,0.99,-3.27,-11.6,0.028,0.043,0.993,2.56,-1.65,-11.6
5.401,1764971606.023029,0.058,0.013,1.006,0.98,-3.27,-11.61,0.026,0.044,0.997,2.56,-1.65,-11.6
5.418,1764971606.040149,0.06,0.018,1.008,0.98,-3.28,-11.61,0.028,0.044,0.993,2.56,-1.65,-11.6
5.435,1764971606.057077,0.06,0.013,1.01,0.98,-3.28,-11.61,0.026,0.046,0.995,2.57,-1.65,-11.6
5.452,1764971606.07477,0.057,0.018,1.004,0.98,-3.28,-11.61,0.028,0.045,0.995,2.57,-1.64,-11.6
5.470001,1764971606.092057,0.058,0.017,1.007,0.98,-3.28,-11.61,0.033,0.04,0.994,2.56,-1.65,-11.6
5.488,1764971606.110097,0.058,0.019,1.007,0.98,-3.28,-11.61,0.031,0.043,0.991,2.56,-1.65,-11.6
5.506,1764971606.128105,0.057,0.019,1.007,0.98,-3.27,-11.61,0.028,0.046,0.995,2.56,-1.65,-11.59
5.523996,1764971606.146105,0.062,0.017,1.004,0.98,-3.28,-11.61,0.031,0.043,0.995,2.56,-1.65,-11.59
5.542,1764971606.1639838,0.057,0.017,1.007,0.98,-3.28,-11.61,0.028,0.045,0.993,2.55,-1.65,-11.6
5.559,1764971606.181,0.057,0.015,1.006,0.98,-3.28,-11.61,0.023,0.046,0.997,2.56,-1.65,-11.59
5.576,1764971606.1979818,0.057,0.017,1.005,0.98,-3.28,-11.61,0.024,0.042,0.993,2.55,-1.64,-11.6
5.593999,1764971606.215988,0.06,0.02,1.003,0.98,-3.28,-11.61,0.03,0.048,0.997,2.56,-1.64,-11.6
5.612,1764971606.2339919,0.057,0.012,1.005,0.97,-3.28,-11.61,0.024,0.045,0.995,2.56,-1.64,-11.6
5.629999,1764971606.2518752,0.057,0.02,1.006,0.98,-3.28,-11.61,0.029,0.047,0.993,2.56,-1.64,-11.6
5.647,1764971606.268854,0.059,0.016,1.005,0.97,-3.28,-11.61,0.03,0.045,0.991,2.56,-1.64,-11.6
5.663999,1764971606.2859368,0.056,0.018,1.006,0.97,-3.28,-11.61,0.028,0.047,0.995,2.56,-1.64,-11.59
5.681999,1764971606.303871,0.057,0.017,1.008,0.97,-3.28,-11.61,0.03,0.042,0.994,2.56,-1.64,-11.59
5.7,1764971606.321849,0.057,0.019,1.003,0.98,-3.27,-11.62,0.029,0.044,0.996,2.55,-1.64,-11.59
5.717996,1764971606.34082,0.059,0.021,1.005,0.98,-3.28,-11.62,0.027,0.042,0.996,2.55,-1.64,-11.59
5.736,1764971606.357895,0.055,0.015,1.007,0.98,-3.27,-11.62,0.026,0.045,0.993,2.55,-1.64,-11.59
5.753996,1764971606.375732,0.059,0.018,1.009,0.98,-3.27,-11.62,0.027,0.047,0.995,2.55,-1.63,-11.6
5.770997,1764971606.392718,0.059,0.019,1.008,0.98,-3.27,-11.62,0.024,0.046,0.994,2.56,-1.63,-11.59
5.787999,1764971606.41052,0.058,0.017,1.006,0.98,-3.27,-11.63,0.028,0.046,0.993,2.56,-1.63,-11.59
5.805,1764971606.4267929,0.056,0.016,1.002,0.97,-3.27,-11.63,0.034,0.041,0.993,2.56,-1.64,-11.59
5.823,1764971606.444768,0.057,0.017,1.007,0.97,-3.27,-11.63,0.033,0.044,0.997,2.56,-1.64,-11.6
5.841,1764971606.4628348,0.057,0.018,1.001,0.98,-3.27,-11.63,0.028,0.047,0.994,2.56,-1.64,-11.59
5.859,1764971606.4806862,0.06,0.018,1.005,0.97,-3.27,-11.63,0.031,0.041,0.995,2.55,-1.64,-11.59
5.876,1764971606.497696,0.058,0.019,1.004,0.97,-3.27,-11.63,0.034,0.045,0.996,2.55,-1.64,-11.59
5.893,1764971606.514708,0.061,0.017,1.005,0.98,-3.28,-11.63,0.027,0.045,0.995,2.56,-1.64,-11.59
5.909999,1764971606.531759,0.057,0.018,1.006,0.98,-3.28,-11.63,0.027,0.045,0.993,2.56,-1.64,-11.6
5.926999,1764971606.549484,0.061,0.019,1.009,0.98,-3.28,-11.64,0.029,0.048,0.996,2.56,-1.64,-11.6
5.945,1764971606.5666602,0.057,0.018,1.007,0.98,-3.28,-11.64,0.028,0.044,0.993,2.56,-1.64,-11.6
5.963,1764971606.584633,0.056,0.017,1.008,0.98,-3.28,-11.64,0.026,0.048,0.994,2.56,-1.64,-11.6
5.98,1764971606.602954,0.057,0.018,1.005,0.98,-3.27,-11.64,0.032,0.046,0.998,2.57,-1.65,-11.6
5.998,1764971606.619626,0.055,0.02,1.001,0.98,-3.27,-11.64,0.025,0.043,0.994,2.56,-1.64,-11.6
6.015,1764971606.636607,0.057,0.017,1.007,0.98,-3.27,-11.64,0.031,0.039,0.994,2.56,-1.64,-11.6
6.032997,1764971606.654665,0.056,0.017,1.006,0.98,-3.26,-11.64,0.027,0.045,0.99,2.56,-1.64,-11.6
6.050999,1764971606.6734478,0.052,0.019,1.008,0.98,-3.26,-11.64,0.031,0.044,0.996,2.56,-1.64,-11.6
6.068997,1764971606.690568,0.056,0.019,1.006,0.98,-3.25,-11.64,0.028,0.044,0.997,2.55,-1.64,-11.6
6.086997,1764971606.708527,0.057,0.016,1.005,0.98,-3.26,-11.64,0.03,0.04,0.995,2.55,-1.64,-11.6
6.105,1764971606.7265651,0.057,0.019,1.007,0.98,-3.25,-11.64,0.03,0.045,0.992,2.55,-1.65,-11.6
6.123,1764971606.744527,0.056,0.02,1.004,0.98,-3.25,-11.64,0.028,0.041,0.994,2.55,-1.65,-11.6
6.141,1764971606.762559,0.057,0.016,1.005,0.98,-3.25,-11.64,0.029,0.042,0.992,2.54,-1.65,-11.6
6.159,1764971606.7806358,0.059,0.021,1.008,0.98,-3.25,-11.65,0.028,0.041,0.992,2.54,-1.65,-11.6
6.177,1764971606.79846,0.06,0.019,1.008,0.98,-3.26,-11.65,0.033,0.045,0.995,2.54,-1.65,-11.6
6.194,1764971606.815563,0.061,0.016,1.006,0.98,-3.26,-11.65,0.03,0.049,0.994,2.55,-1.65,-11.6
6.211997,1764971606.8336,0.055,0.018,1.006,0.98,-3.26,-11.65,0.031,0.045,0.993,2.55,-1.66,-11.6
6.23,1764971606.851451,0.059,0.02,1.003,0.99,-3.26,-11.65,0.028,0.046,0.991,2.56,-1.66,-11.6
6.248,1764971606.869392,0.056,0.017,1.004,0.98,-3.26,-11.65,0.031,0.046,0.989,2.55,-1.66,-11.6
6.266,1764971606.887436,0.059,0.018,1.004,0.98,-3.26,-11.66,0.028,0.045,0.995,2.55,-1.66,-11.6
6.284001,1764971606.905453,0.059,0.018,1.002,0.98,-3.26,-11.66,0.027,0.046,0.996,2.56,-1.65,-11.61
6.302,1764971606.923418,0.057,0.02,1.008,0.99,-3.26,-11.66,0.029,0.042,0.997,2.55,-1.66,-11.6
6.319999,1764971606.941368,0.054,0.018,1.002,0.99,-3.26,-11.66,0.023,0.044,0.995,2.55,-1.65,-11.61
6.338,1764971606.9593449,0.056,0.019,1.007,0.99,-3.25,-11.65,0.029,0.045,0.996,2.56,-1.65,-11.61
6.355997,1764971606.977377,0.058,0.018,1.006,0.99,-3.25,-11.65,0.028,0.046,0.996,2.56,-1.65,-11.61
6.373996,1764971606.995262,0.056,0.017,1.005,0.99,-3.26,-11.66,0.032,0.044,0.994,2.56,-1.65,-11.61
6.391997,1764971607.013422,0.06,0.017,1.005,0.99,-3.26,-11.66,0.031,0.044,0.995,2.55,-1.66,-11.61
6.41,1764971607.031334,0.061,0.018,1.005,0.99,-3.26,-11.66,0.029,0.048,0.995,2.56,-1.66,-11.61
6.428,1764971607.0493598,0.059,0.02,1.009,0.99,-3.27,-11.66,0.028,0.043,0.992,2.55,-1.65,-11.61
6.445999,1764971607.0672598,0.058,0.015,1.004,0.99,-3.27,-11.66,0.026,0.044,0.995,2.55,-1.65,-11.61
6.463999,1764971607.085197,0.054,0.019,1.007,0.99,-3.26,-11.66,0.028,0.046,0.996,2.56,-1.65,-11.61
6.482006,1764971607.103287,0.058,0.021,1.003,0.99,-3.27,-11.66,0.03,0.049,0.996,2.56,-1.65,-11.61
6.499998,1764971607.12127,0.057,0.011,1.005,0.99,-3.27,-11.66,0.028,0.044,0.994,2.56,-1.65,-11.61
6.517999,1764971607.1392372,0.057,0.018,1.005,0.99,-3.27,-11.66,0.03,0.047,0.995,2.57,-1.65,-11.61
6.535999,1764971607.157265,0.062,0.021,1.003,0.99,-3.27,-11.66,0.028,0.049,0.995,2.57,-1.65,-11.61
6.554,1764971607.1752279,0.057,0.018,1.008,0.99,-3.27,-11.66,0.03,0.044,0.994,2.57,-1.65,-11.61
6.571998,1764971607.1931689,0.056,0.016,1.008,0.99,-3.27,-11.66,0.025,0.044,0.999,2.57,-1.65,-11.61
6.588998,1764971607.210134,0.053,0.017,1.004,0.99,-3.26,-11.66,0.027,0.044,0.993,2.57,-1.64,-11.61
6.605999,1764971607.2272599,0.059,0.02,1.001,0.99,-3.27,-11.66,0.032,0.046,0.995,2.57,-1.65,-11.61
6.623,1764971607.244168,0.057,0.021,1.006,0.99,-3.27,-11.66,0.025,0.042,0.998,2.57,-1.64,-11.61
6.641,1764971607.2621849,0.055,0.015,0.999,0.99,-3.27,-11.66,0.024,0.045,0.994,2.57,-1.64,-11.61
6.659,1764971607.280103,0.058,0.018,1.002,0.99,-3.27,-11.66,0.029,0.048,0.993,2.57,-1.64,-11.61
6.677,1764971607.2980962,0.057,0.018,1.009,0.99,-3.27,-11.66,0.028,0.051,0.996,2.57,-1.64,-11.61
6.694999,1764971607.316024,0.06,0.021,1.007,1.0,-3.27,-11.66,0.027,0.047,0.997,2.58,-1.64,-11.61
6.712,1764971607.332976,0.058,0.012,1.008,0.99,-3.27,-11.67,0.023,0.047,0.997,2.58,-1.63,-11.61
6.729,1764971607.3499498,0.061,0.021,1.001,0.99,-3.27,-11.66,0.03,0.046,0.989,2.58,-1.64,-11.61
6.746,1764971607.36692,0.056,0.021,1.007,0.99,-3.27,-11.66,0.029,0.049,0.996,2.58,-1.64,-11.61
6.763999,1764971607.385035,0.056,0.02,1.007,0.99,-3.27,-11.67,0.026,0.043,0.997,2.58,-1.63,-11.61
6.781998,1764971607.4029598,0.057,0.013,1.007,0.99,-3.27,-11.67,0.032,0.044,0.995,2.58,-1.64,-11.61
6.799001,1764971607.419868,0.058,0.02,1.001,0.99,-3.27,-11.67,0.025,0.047,0.99,2.59,-1.63,-11.61
6.816,1764971607.436865,0.058,0.018,1.007,0.99,-3.27,-11.67,0.027,0.046,0.995,2.59,-1.63,-11.61
6.833,1764971607.453922,0.054,0.015,1.006,0.99,-3.27,-11.67,0.029,0.04,0.995,2.58,-1.63,-11.61
6.849999,1764971607.4708438,0.059,0.016,1.005,0.99,-3.27,-11.67,0.03,0.045,0.992,2.58,-1.63,-11.61
6.868,1764971607.489564,0.059,0.018,1.007,0.99,-3.27,-11.67,0.034,0.048,0.994,2.58,-1.63,-11.61
6.885996,1764971607.506863,0.057,0.015,1.006,0.99,-3.27,-11.67,0.029,0.047,1.0,2.58,-1.63,-11.61
6.903999,1764971607.524912,0.057,0.017,1.009,0.98,-3.27,-11.67,0.03,0.04,0.995,2.58,-1.64,-11.61
6.922,1764971607.542752,0.057,0.014,1.003,0.98,-3.27,-11.67,0.028,0.045,0.993,2.58,-1.64,-11.61
6.939,1764971607.559832,0.058,0.019,1.002,0.98,-3.27,-11.67,0.031,0.045,0.991,2.58,-1.64,-11.6
6.955997,1764971607.576755,0.058,0.016,1.007,0.98,-3.27,-11.67,0.026,0.04,0.993,2.58,-1.64,-11.6
6.973,1764971607.5938299,0.057,0.015,1.009,0.98,-3.27,-11.67,0.026,0.046,0.994,2.58,-1.63,-11.6
6.99,1764971607.610763,0.056,0.02,1.005,0.98,-3.27,-11.67,0.029,0.048,0.998,2.59,-1.64,-11.6
7.008,1764971607.62876,0.057,0.013,1.002,0.97,-3.27,-11.68,0.03,0.044,0.993,2.59,-1.64,-11.6
7.025998,1764971607.6467662,0.054,0.014,1.006,0.97,-3.26,-11.68,0.027,0.041,0.998,2.58,-1.64,-11.6
7.042999,1764971607.663737,0.055,0.017,1.002,0.97,-3.26,-11.68,0.029,0.044,0.993,2.58,-1.64,-11.6
7.059996,1764971607.682254,0.055,0.018,1.006,0.97,-3.26,-11.68,0.025,0.05,0.997,2.58,-1.63,-11.6
7.077,1764971607.697675,0.059,0.016,1.008,0.97,-3.26,-11.68,0.03,0.047,0.992,2.58,-1.64,-11.6
7.094999,1764971607.7156868,0.057,0.017,1.005,0.97,-3.26,-11.68,0.026,0.043,0.997,2.58,-1.63,-11.6
7.112996,1764971607.73379,0.059,0.02,1.008,0.98,-3.26,-11.68,0.025,0.044,0.997,2.58,-1.63,-11.6
7.130996,1764971607.751997,0.056,0.017,1.004,0.98,-3.25,-11.68,0.029,0.043,0.993,2.58,-1.63,-11.6
7.149,1764971607.76966,0.057,0.021,1.005,0.98,-3.25,-11.68,0.03,0.048,0.993,2.58,-1.63,-11.6
7.166,1764971607.78672,0.058,0.02,1.005,0.98,-3.25,-11.68,0.029,0.044,0.997,2.57,-1.63,-11.6
7.183997,1764971607.8046641,0.057,0.015,1.006,0.98,-3.25,-11.68,0.031,0.046,0.999,2.58,-1.63,-11.6
7.200999,1764971607.821645,0.055,0.019,1.008,0.98,-3.24,-11.68,0.031,0.047,0.995,2.58,-1.63,-11.6
7.217997,1764971607.8387551,0.057,0.02,1.007,0.98,-3.24,-11.68,0.03,0.04,0.997,2.57,-1.63,-11.6
7.236,1764971607.856568,0.058,0.017,1.008,0.98,-3.24,-11.68,0.024,0.04,0.998,2.57,-1.63,-11.6
7.253997,1764971607.874589,0.059,0.015,1.006,0.98,-3.24,-11.68,0.027,0.044,0.991,2.56,-1.63,-11.6
7.271999,1764971607.8926668,0.06,0.019,1.005,0.98,-3.24,-11.68,0.03,0.045,0.994,2.57,-1.63,-11.6
7.29,1764971607.9105952,0.056,0.019,1.006,0.98,-3.24,-11.68,0.032,0.046,0.998,2.57,-1.63,-11.59
7.308,1764971607.928591,0.062,0.018,1.005,0.98,-3.25,-11.68,0.032,0.044,0.992,2.57,-1.63,-11.59
7.325999,1764971607.946562,0.061,0.016,1.003,0.98,-3.25,-11.68,0.03,0.045,0.992,2.57,-1.63,-11.59
7.344,1764971607.9645078,0.061,0.017,1.009,0.98,-3.25,-11.68,0.027,0.044,0.995,2.56,-1.63,-11.59
7.362,1764971607.9825659,0.062,0.022,1.006,0.98,-3.26,-11.68,0.025,0.047,0.994,2.57,-1.63,-11.59
7.379999,1764971608.0005178,0.055,0.018,1.006,0.98,-3.26,-11.68,0.027,0.04,0.996,2.56,-1.63,-11.59
7.398,1764971608.018836,0.055,0.018,1.001,0.98,-3.25,-11.68,0.029,0.044,0.991,2.57,-1.63,-11.59
7.415999,1764971608.036577,0.061,0.014,1.005,0.98,-3.25,-11.68,0.029,0.042,0.993,2.56,-1.63,-11.59
7.434,1764971608.054398,0.059,0.019,1.008,0.98,-3.26,-11.68,0.028,0.044,0.994,2.56,-1.63,-11.59
7.452,1764971608.072425,0.057,0.016,1.008,0.98,-3.26,-11.68,0.028,0.047,0.993,2.56,-1.63,-11.59
7.47,1764971608.090475,0.057,0.021,1.007,0.98,-3.26,-11.68,0.03,0.043,0.994,2.56,-1.63,-11.59
7.487999,1764971608.108415,0.057,0.019,1.008,0.98,-3.26,-11.68,0.027,0.047,0.997,2.56,-1.63,-11.59
7.505999,1764971608.12649,0.057,0.018,1.006,0.99,-3.26,-11.68,0.032,0.047,0.995,2.57,-1.63,-11.59
7.523999,1764971608.144418,0.057,0.014,0.997,0.98,-3.26,-11.68,0.032,0.045,0.993,2.57,-1.64,-11.58
7.541998,1764971608.162422,0.06,0.019,1.007,0.98,-3.26,-11.68,0.028,0.046,0.995,2.57,-1.64,-11.59
7.56,1764971608.180415,0.057,0.018,1.004,0.98,-3.26,-11.68,0.03,0.043,0.996,2.56,-1.64,-11.59
7.578,1764971608.198349,0.058,0.02,1.006,0.98,-3.26,-11.69,0.028,0.04,0.996,2.55,-1.64,-11.59
7.595,1764971608.2153862,0.056,0.015,1.008,0.98,-3.26,-11.69,0.028,0.045,0.999,2.56,-1.64,-11.59
7.612999,1764971608.233361,0.057,0.018,1.008,0.98,-3.26,-11.69,0.023,0.043,0.995,2.56,-1.63,-11.58
7.631,1764971608.2513978,0.057,0.018,1.0,0.98,-3.26,-11.69,0.028,0.04,0.992,2.55,-1.63,-11.58
7.649,1764971608.2692459,0.059,0.015,1.004,0.98,-3.26,-11.69,0.028,0.045,0.988,2.55,-1.63,-11.58
7.666999,1764971608.2877572,0.056,0.019,1.006,0.98,-3.26,-11.69,0.029,0.048,0.994,2.56,-1.63,-11.58
7.685,1764971608.305352,0.056,0.018,1.007,0.98,-3.25,-11.69,0.029,0.042,0.996,2.55,-1.63,-11.58
7.703,1764971608.3232782,0.059,0.017,1.007,0.98,-3.26,-11.7,0.029,0.049,1.0,2.55,-1.63,-11.58
7.721,1764971608.341275,0.059,0.017,1.007,0.98,-3.26,-11.69,0.027,0.046,0.995,2.55,-1.63,-11.58
7.738998,1764971608.359231,0.06,0.014,1.007,0.97,-3.26,-11.69,0.027,0.045,0.992,2.55,-1.63,-11.58
7.756999,1764971608.3772411,0.053,0.018,1.006,0.97,-3.25,-11.7,0.029,0.043,0.991,2.55,-1.63,-11.58
7.774999,1764971608.395212,0.058,0.02,1.002,0.97,-3.25,-11.7,0.033,0.048,0.994,2.56,-1.64,-11.58
7.793,1764971608.413183,0.056,0.019,1.002,0.98,-3.25,-11.7,0.028,0.043,0.995,2.55,-1.63,-11.58
7.811001,1764971608.431129,0.055,0.019,1.004,0.98,-3.25,-11.7,0.028,0.045,0.996,2.55,-1.63,-11.58
7.828,1764971608.448094,0.056,0.02,1.007,0.98,-3.25,-11.69,0.029,0.043,0.996,2.55,-1.63,-11.58
7.844999,1764971608.465085,0.058,0.019,1.002,0.98,-3.25,-11.69,0.029,0.045,0.995,2.55,-1.63,-11.58
7.862,1764971608.482111,0.061,0.017,1.01,0.98,-3.26,-11.69,0.024,0.045,0.996,2.55,-1.62,-11.58
7.88,1764971608.500154,0.059,0.018,1.007,0.98,-3.26,-11.7,0.025,0.046,0.992,2.55,-1.62,-11.58
7.898,1764971608.5180821,0.06,0.019,1.011,0.98,-3.26,-11.7,0.029,0.042,0.993,2.55,-1.62,-11.59
7.916,1764971608.536065,0.057,0.021,1.009,0.99,-3.26,-11.7,0.031,0.045,0.993,2.55,-1.62,-11.58
7.933999,1764971608.55511,0.058,0.021,1.005,0.99,-3.26,-11.7,0.027,0.042,0.996,2.55,-1.62,-11.59
7.950999,1764971608.57098,0.058,0.021,1.002,0.99,-3.26,-11.7,0.034,0.045,0.995,2.55,-1.63,-11.58
7.968,1764971608.5879622,0.059,0.019,1.01,1.0,-3.27,-11.7,0.03,0.047,0.996,2.55,-1.63,-11.58
7.985,1764971608.604901,0.058,0.017,1.007,0.99,-3.27,-11.7,0.029,0.048,0.995,2.55,-1.62,-11.58
8.002997,1764971608.622923,0.057,0.019,1.005,1.0,-3.27,-11.7,0.029,0.043,0.998,2.55,-1.62,-11.58
8.020999,1764971608.6410072,0.058,0.017,1.003,0.99,-3.26,-11.7,0.027,0.042,0.994,2.55,-1.62,-11.58
8.038998,1764971608.658894,0.057,0.02,1.002,0.99,-3.27,-11.7,0.029,0.045,0.995,2.55,-1.63,-11.58
8.056,1764971608.675859,0.059,0.02,1.009,0.99,-3.27,-11.7,0.028,0.047,0.996,2.56,-1.63,-11.58
8.072996,1764971608.6928298,0.056,0.019,1.003,1.0,-3.27,-11.7,0.026,0.045,0.994,2.56,-1.62,-11.58
8.09,1764971608.712836,0.059,0.018,1.006,1.0,-3.27,-11.7,0.024,0.044,0.994,2.56,-1.62,-11.58
8.106996,1764971608.726809,0.058,0.019,1.007,1.0,-3.27,-11.7,0.028,0.045,0.994,2.56,-1.62,-11.58
8.124999,1764971608.744855,0.057,0.018,1.008,1.0,-3.27,-11.71,0.026,0.048,0.993,2.56,-1.61,-11.58
8.142999,1764971608.762857,0.056,0.011,1.003,0.99,-3.27,-11.71,0.032,0.045,0.996,2.56,-1.62,-11.58
8.161,1764971608.7808251,0.056,0.017,1.004,0.99,-3.27,-11.71,0.029,0.042,0.996,2.56,-1.62,-11.58
8.179,1764971608.798749,0.059,0.02,1.008,0.99,-3.27,-11.71,0.03,0.044,0.997,2.56,-1.62,-11.58
8.195999,1764971608.8157172,0.058,0.019,1.009,0.99,-3.27,-11.71,0.028,0.04,0.994,2.55,-1.62,-11.58
8.212999,1764971608.832717,0.057,0.016,1.005,0.99,-3.27,-11.71,0.027,0.046,0.996,2.55,-1.62,-11.58
8.229996,1764971608.849729,0.061,0.016,1.008,0.99,-3.27,-11.71,0.031,0.045,0.996,2.55,-1.62,-11.58
8.248,1764971608.867719,0.059,0.016,1.004,0.98,-3.27,-11.71,0.027,0.047,0.994,2.56,-1.62,-11.58
8.266001,1764971608.885661,0.059,0.013,1.006,0.98,-3.27,-11.72,0.028,0.043,0.991,2.55,-1.62,-11.58
8.283,1764971608.902655,0.054,0.018,1.003,0.98,-3.27,-11.72,0.029,0.046,0.995,2.55,-1.62,-11.58
8.3,1764971608.919658,0.054,0.018,1.005,0.98,-3.27,-11.72,0.029,0.045,0.992,2.56,-1.62,-11.58
8.316999,1764971608.936652,0.06,0.018,1.002,0.98,-3.27,-11.72,0.029,0.044,0.992,2.55,-1.62,-11.58
8.334,1764971608.953681,0.057,0.019,1.006,0.98,-3.27,-11.71,0.031,0.041,0.993,2.55,-1.63,-11.58
8.351997,1764971608.971686,0.058,0.018,1.007,0.98,-3.27,-11.71,0.028,0.042,0.992,2.55,-1.62,-11.58
8.369999,1764971608.989655,0.056,0.016,1.006,0.98,-3.27,-11.72,0.032,0.046,0.997,2.55,-1.63,-11.58
8.387996,1764971609.007701,0.057,0.017,1.009,0.98,-3.27,-11.72,0.025,0.041,0.995,2.54,-1.62,-11.58
8.405997,1764971609.025729,0.056,0.02,1.005,0.98,-3.27,-11.72,0.033,0.042,0.994,2.54,-1.63,-11.58
8.424,1764971609.043651,0.056,0.017,1.0,0.98,-3.27,-11.72,0.032,0.045,0.99,2.54,-1.63,-11.58
8.441,1764971609.0606122,0.057,0.014,1.005,0.98,-3.27,-11.72,0.032,0.046,0.993,2.55,-1.64,-11.58
8.458998,1764971609.078539,0.06,0.018,1.004,0.98,-3.27,-11.72,0.024,0.042,0.991,2.55,-1.63,-11.58
8.477,1764971609.096545,0.057,0.016,1.005,0.98,-3.27,-11.72,0.031,0.043,0.996,2.54,-1.64,-11.58
8.494998,1764971609.1145852,0.057,0.02,1.006,0.98,-3.27,-11.72,0.024,0.044,0.996,2.54,-1.63,-11.58
8.513,1764971609.1325529,0.056,0.019,1.006,0.98,-3.27,-11.72,0.029,0.045,0.991,2.54,-1.63,-11.58
8.530997,1764971609.150636,0.06,0.017,1.007,0.98,-3.27,-11.72,0.03,0.044,0.994,2.54,-1.63,-11.58
8.548997,1764971609.1684952,0.055,0.02,1.002,0.98,-3.27,-11.72,0.031,0.043,0.995,2.54,-1.64,-11.58
8.567,1764971609.186578,0.056,0.02,1.004,0.98,-3.27,-11.72,0.032,0.045,0.993,2.54,-1.64,-11.58
8.585,1764971609.204536,0.059,0.02,1.005,0.99,-3.27,-11.72,0.028,0.044,0.994,2.54,-1.63,-11.58
8.603,1764971609.2224672,0.059,0.019,1.006,0.99,-3.27,-11.73,0.03,0.044,0.995,2.54,-1.64,-11.58
8.621,1764971609.240482,0.057,0.022,1.006,1.0,-3.27,-11.72,0.026,0.04,0.997,2.53,-1.64,-11.58
8.638,1764971609.257534,0.044,-0.011,0.981,0.94,-3.28,-11.71,0.031,0.042,0.992,2.54,-1.64,-11.58
8.656,1764971609.275431,0.06,0.011,1.005,0.95,-3.33,-11.71,0.028,0.048,0.999,2.55,-1.65,-11.57
8.673999,1764971609.2934232,0.044,0.018,1.008,0.96,-3.39,-11.67,0.029,0.043,1.005,2.55,-1.65,-11.58
8.692,1764971609.311397,0.046,0.022,0.987,1.22,-3.25,-11.55,0.027,0.042,0.996,2.56,-1.66,-11.59
8.709998,1764971609.329333,0.055,0.059,1.039,2.05,-3.23,-11.42,0.023,0.047,0.99,2.57,-1.62,-11.61
8.727997,1764971609.3473768,0.107,0.023,1.04,4.2,-3.35,-11.47,0.036,0.051,0.982,2.61,-1.58,-11.63
8.745999,1764971609.365431,0.074,0.142,0.811,4.41,-3.31,-11.37,0.055,0.069,0.993,2.67,-1.62,-11.63
8.764,1764971609.383414,0.043,0.059,0.945,2.5,-3.74,-11.13,0.038,0.051,0.982,2.67,-1.65,-11.61
8.781999,1764971609.4013371,0.112,0.05,0.869,2.24,-4.59,-11.25,0.03,0.042,1.007,2.64,-1.65,-11.63
8.799999,1764971609.419295,0.078,0.072,1.308,4.61,-5.01,-11.56,0.025,0.041,1.001,2.63,-1.65,-11.66
8.817001,1764971609.4363909,0.068,0.094,1.236,9.12,-5.25,-11.77,0.017,0.048,1.004,2.67,-1.65,-11.7
8.835,1764971609.454421,0.107,0.029,1.685,15.26,-5.96,-11.91,0.032,0.034,1.002,2.8,-1.67,-11.74
8.852999,1764971609.472364,0.061,0.34,1.166,23.7,-6.6,-11.95,0.034,-0.045,1.034,3.09,-1.74,-11.94
8.870999,1764971609.490342,0.045,0.481,0.958,32.62,-7.18,-12.16,0.024,0.043,1.014,3.6,-1.89,-12.13
8.888997,1764971609.508325,0.077,0.64,0.575,41.78,-7.55,-12.78,0.041,0.12,1.112,4.54,-2.28,-12.24
8.907,1764971609.526348,0.033,0.49,0.853,50.4,-7.92,-14.16,0.034,0.104,1.038,5.69,-2.86,-12.34
8.925,1764971609.544272,0.168,0.553,0.595,59.09,-9.1,-15.24,0.107,0.024,0.757,6.45,-3.28,-12.72
8.943,1764971609.562258,0.152,0.927,0.403,66.83,-9.86,-16.29,0.115,0.122,1.035,6.6,-3.69,-13.12
8.960999,1764971609.5802088,0.223,0.895,0.108,74.03,-10.57,-17.59,0.111,0.199,1.074,7.32,-4.11,-13.39
8.978999,1764971609.598187,0.113,1.003,0.102,79.95,-10.85,-18.85,0.065,0.147,0.89,8.03,-4.49,-13.65
8.996999,1764971609.616194,0.024,1.122,0.659,84.92,-8.86,-20.69,0.229,0.082,1.157,8.8,-5.42,-14.02
9.015,1764971609.634198,0.026,1.116,-0.039,88.0,-10.55,-22.39,0.069,0.218,1.196,9.95,-6.75,-14.25
9.032999,1764971609.652184,-0.019,1.002,-0.258,89.21,-12.95,-24.32,-0.002,0.181,1.119,11.4,-8.12,-14.59
9.050996,1764971609.670152,-0.043,1.07,-0.217,88.4,-15.07,-25.86,0.131,0.185,0.855,12.45,-9.32,-14.88
9.068999,1764971609.6880581,-0.026,1.132,-0.125,85.08,-17.74,-27.32,0.171,0.218,0.773,13.09,-10.25,-15.09
9.086999,1764971609.708092,-0.137,0.983,-0.007,80.09,-20.21,-28.67,0.058,0.243,0.663,13.11,-10.89,-15.18
9.105,1764971609.724035,-0.186,1.172,0.699,74.93,-18.66,-29.2,-0.065,0.385,0.782,13.3,-10.62,-14.91
9.122999,1764971609.7420301,-0.174,1.169,0.308,71.85,-18.94,-29.1,0.037,0.157,0.304,13.39,-9.65,-14.62
9.140999,1764971609.7600482,-0.242,1.292,0.284,67.73,-19.82,-28.66,0.139,0.214,0.906,12.72,-8.66,-14.39
9.159,1764971609.7781389,-0.113,0.905,0.414,63.22,-20.99,-28.47,0.139,0.336,0.912,12.09,-7.57,-14.25
9.176997,1764971609.795943,0.091,0.479,0.12,59.43,-22.22,-28.28,0.091,0.279,1.185,11.41,-6.67,-13.9
9.193996,1764971609.813067,0.051,0.786,0.289,55.28,-22.41,-28.19,0.132,0.114,1.23,10.86,-6.24,-13.67
9.211997,1764971609.8309681,-0.053,0.704,0.551,49.04,-22.19,-27.95,0.171,0.101,1.073,11.27,-6.34,-13.57
9.23,1764971609.849366,-0.021,1.524,-0.025,47.34,-19.69,-28.3,-0.045,-0.094,0.777,11.54,-5.79,-13.98
9.247999,1764971609.8672562,-0.083,1.4,0.869,43.24,-20.24,-28.06,0.141,-0.003,1.055,11.73,-5.45,-14.76
9.265999,1764971609.885067,0.143,0.388,0.787,41.32,-21.21,-27.59,0.106,0.411,1.091,12.32,-5.32,-15.12
9.283999,1764971609.9029381,0.157,0.694,0.77,40.66,-21.77,-27.62,0.053,0.253,0.791,12.42,-5.15,-14.91
9.302,1764971609.9209611,-0.024,0.562,1.125,37.27,-21.38,-27.72,0.065,0.284,0.515,11.62,-4.34,-14.57
9.319999,1764971609.9388878,-0.037,0.74,0.696,33.75,-21.59,-27.56,0.095,0.204,1.178,10.44,-3.89,-14.46
9.337998,1764971609.9568498,0.042,0.709,1.131,32.53,-22.04,-27.77,0.091,0.108,1.096,9.73,-3.65,-14.56
9.356,1764971609.975059,0.049,0.823,1.164,30.39,-23.03,-28.05,0.079,0.183,1.023,9.33,-3.54,-14.57
9.374,1764971609.992852,0.084,0.691,1.099,28.48,-24.21,-27.81,0.026,0.214,1.015,9.83,-3.55,-14.24
9.392,1764971610.010831,0.105,0.789,1.001,25.91,-25.99,-27.33,0.099,0.151,0.934,10.21,-3.72,-13.9
9.409997,1764971610.028765,0.075,0.594,1.109,21.96,-28.64,-26.69,0.074,0.123,1.013,10.88,-3.71,-13.6
9.428,1764971610.0467892,0.127,0.192,1.189,15.8,-31.92,-26.36,0.099,0.129,0.898,11.32,-3.63,-13.45
9.446,1764971610.064776,0.348,-0.165,1.3,9.66,-34.89,-26.42,0.129,0.146,0.852,11.64,-3.76,-13.45
9.464,1764971610.082816,0.259,0.404,0.829,4.02,-36.44,-25.81,0.008,0.146,0.945,11.48,-3.91,-13.49
9.482,1764971610.1010308,0.259,0.226,0.832,-2.6,-37.01,-24.77,0.117,0.053,0.983,11.19,-4.46,-13.38
9.5,1764971610.118752,0.395,-0.051,0.874,-9.56,-38.62,-24.46,0.181,0.137,1.083,10.35,-4.62,-13.82
9.517999,1764971610.136731,0.24,-0.192,0.598,-17.12,-40.28,-23.92,0.045,0.153,0.975,10.13,-4.78,-14.67
9.536,1764971610.154639,0.377,-0.282,0.725,-25.29,-41.57,-23.18,0.014,0.158,1.06,10.19,-4.98,-15.4
9.553998,1764971610.172662,0.411,-0.644,0.97,-32.69,-42.77,-22.53,0.102,0.055,0.924,9.74,-5.16,-15.93
9.572,1764971610.190748,0.325,-0.234,0.641,-38.3,-43.69,-21.89,-0.023,0.179,1.028,10.08,-5.51,-16.61
9.59,1764971610.208732,0.328,-0.425,0.644,-42.14,-44.27,-21.22,-0.018,0.121,0.958,10.41,-5.98,-16.93
9.608,1764971610.2266612,0.53,-0.577,0.637,-44.6,-44.49,-20.62,-0.036,0.217,0.872,9.67,-6.03,-17.51
9.626,1764971610.244692,0.419,-0.668,0.565,-46.84,-44.7,-20.25,0.059,0.245,0.903,9.58,-6.09,-18.19
9.644,1764971610.262623,0.359,-0.644,0.41,-48.34,-44.68,-19.94,0.068,0.193,0.938,9.29,-6.05,-18.54
9.662,1764971610.280543,0.432,-0.645,0.426,-49.0,-44.5,-19.73,0.052,0.224,0.913,9.15,-5.84,-18.83
9.68,1764971610.298649,0.399,-0.552,0.418,-48.38,-44.12,-19.78,0.014,0.145,0.975,9.11,-5.57,-19.0
9.698,1764971610.316612,0.375,-0.573,0.412,-45.87,-43.45,-20.3,0.03,0.15,0.958,9.36,-5.3,-18.96
9.715999,1764971610.3346639,0.314,-0.518,0.372,-40.21,-42.45,-21.61,0.041,0.138,0.748,8.92,-4.27,-18.88
9.734,1764971610.352583,0.365,-0.446,0.302,-31.41,-40.48,-23.1,0.151,0.148,1.123,8.43,-3.91,-18.87
9.751997,1764971610.3705568,0.391,-0.144,0.512,-22.18,-36.9,-24.24,0.084,0.057,0.97,8.38,-4.06,-19.16
9.769999,1764971610.3886368,0.722,0.122,1.499,-14.76,-34.75,-24.86,0.149,0.362,1.058,8.53,-4.74,-19.2
9.787999,1764971610.406484,0.733,-1.097,1.389,-10.39,-35.2,-25.86,0.267,0.183,0.932,8.55,-5.28,-19.12
9.805998,1764971610.42448,0.315,-0.429,0.863,-9.24,-35.32,-26.71,-0.011,0.067,0.96,8.19,-5.08,-19.12
9.823997,1764971610.442534,0.371,-0.19,0.75,-6.54,-35.16,-27.2,-0.009,0.136,1.016,8.18,-4.93,-19.08
9.842001,1764971610.460463,0.314,-0.056,0.818,-2.63,-34.21,-27.75,-0.029,0.078,0.955,8.24,-4.57,-19.07
9.86,1764971610.478397,0.27,0.013,0.823,2.69,-32.73,-28.65,0.018,0.06,1.001,8.12,-4.4,-19.28
9.878,1764971610.496484,0.408,-0.282,0.795,5.54,-30.47,-29.98,0.058,0.194,1.002,8.29,-4.23,-19.55
9.895999,1764971610.514515,0.008,1.347,0.689,10.2,-26.24,-30.4,0.04,0.098,1.014,8.39,-4.19,-19.97
9.913996,1764971610.5326579,-0.094,0.972,1.415,14.67,-22.46,-29.71,0.099,0.203,0.938,8.67,-4.35,-20.35
9.932,1764971610.550456,0.732,-0.339,1.227,19.48,-21.35,-29.6,0.133,0.252,0.895,8.85,-4.5,-20.52
9.949998,1764971610.568407,0.411,0.271,0.645,23.87,-20.79,-29.9,0.022,0.151,0.914,8.48,-4.24,-20.54
9.968,1764971610.5863302,0.34,0.462,0.63,28.13,-20.4,-30.13,0.024,0.141,0.928,7.56,-3.98,-20.44
9.986,1764971610.6042619,0.024,0.607,0.752,32.65,-19.69,-30.54,0.028,0.104,1.004,6.61,-3.88,-20.3
10.002997,1764971610.62129,-0.051,0.964,0.687,37.43,-18.61,-30.93,-0.002,0.062,1.013,5.6,-3.83,-20.13
10.020999,1764971610.639235,0.088,1.177,0.715,42.82,-17.43,-31.3,0.043,0.074,1.033,5.04,-3.71,-20.0
10.039,1764971610.6572459,0.218,1.095,0.537,48.19,-16.02,-31.09,0.029,0.102,0.992,4.68,-3.56,-19.79
10.056996,1764971610.675329,0.343,0.939,0.752,52.5,-14.98,-30.88,0.057,0.173,1.03,4.86,-3.59,-19.28
10.075,1764971610.693332,0.119,0.893,0.68,56.46,-14.32,-30.84,0.015,0.158,0.953,5.08,-3.57,-18.53
10.092999,1764971610.711355,-0.002,1.251,0.521,59.81,-13.27,-30.98,0.057,0.136,0.936,4.9,-3.53,-17.43
10.111007,1764971610.7293591,-0.16,1.253,0.766,64.29,-12.2,-31.03,0.038,0.118,0.96,4.72,-3.57,-16.4
10.129,1764971610.747316,-0.055,0.793,0.758,67.74,-10.26,-31.37,-0.026,-0.047,1.005,4.45,-3.68,-15.71
10.146999,1764971610.7652009,0.282,0.661,0.696,70.04,-9.03,-31.68,0.048,0.015,0.972,4.26,-3.83,-15.15
10.165,1764971610.783169,0.228,0.623,0.732,71.2,-8.94,-31.84,0.085,-0.051,1.02,4.16,-3.79,-14.94
10.182999,1764971610.801204,0.132,0.717,0.537,71.99,-9.21,-32.28,0.055,-0.0,1.051,4.44,-3.73,-15.02
10.201,1764971610.8191628,0.091,0.893,0.445,71.92,-9.68,-32.94,0.05,0.092,0.969,5.0,-3.81,-15.11
10.218999,1764971610.837101,0.014,1.157,0.408,71.2,-9.82,-33.45,0.049,0.048,0.998,5.37,-3.88,-15.23
10.237,1764971610.855073,-0.127,1.131,0.529,69.05,-9.7,-34.29,0.037,0.056,0.962,5.52,-3.87,-15.46
10.255,1764971610.873027,0.08,1.301,0.416,65.62,-9.47,-34.93,0.055,0.088,0.963,5.57,-3.84,-15.66
10.273,1764971610.891063,0.303,0.935,0.434,61.67,-9.82,-34.87,0.094,0.095,1.015,5.67,-3.92,-15.77
10.291,1764971610.9090939,0.193,0.933,0.758,57.46,-10.61,-34.63,0.053,0.067,0.977,5.86,-3.94,-15.84
10.308999,1764971610.927073,0.079,1.031,0.708,54.55,-11.93,-34.36,0.084,0.081,0.999,6.09,-3.96,-16.01
10.327,1764971610.945125,-0.079,0.914,0.882,51.7,-13.62,-34.16,0.068,0.063,1.0,6.13,-4.01,-16.24
10.344997,1764971610.963159,-0.097,1.119,0.59,49.0,-14.55,-33.92,0.049,0.039,0.975,6.17,-3.99,-16.5
10.362999,1764971610.980997,-0.123,1.112,0.558,45.23,-14.77,-33.63,0.022,0.109,0.944,5.83,-3.89,-16.78
10.381,1764971610.998976,0.056,0.785,0.716,41.62,-14.63,-33.43,0.014,0.148,0.979,5.17,-3.82,-17.08
10.399,1764971611.017076,0.142,0.577,0.825,38.82,-15.17,-33.51,0.035,0.062,0.973,4.19,-3.76,-17.38
10.417,1764971611.0353842,0.083,0.758,0.727,36.02,-15.89,-33.81,0.036,0.122,1.019,2.96,-3.85,-17.52
10.435,1764971611.0529852,0.019,1.111,0.731,35.09,-16.63,-33.94,0.038,0.045,1.039,2.41,-4.02,-17.67
10.452997,1764971611.071143,0.199,0.967,0.675,33.64,-16.75,-33.64,0.019,0.026,1.05,2.52,-3.99,-17.72
10.471,1764971611.088943,0.176,0.576,0.759,31.68,-16.7,-33.27,0.043,0.041,0.998,2.78,-4.03,-17.73
10.489001,1764971611.106863,0.16,0.343,0.982,29.24,-17.07,-33.14,0.056,0.028,0.994,2.97,-4.11,-17.72
10.506999,1764971611.124877,0.223,0.381,0.851,26.19,-17.47,-33.09,0.052,0.031,0.999,3.09,-4.15,-17.76
10.525,1764971611.142946,0.26,0.358,0.951,23.16,-17.87,-33.33,0.034,0.028,0.993,3.27,-4.23,-17.86
10.542998,1764971611.160817,0.235,0.588,1.002,19.86,-18.61,-33.56,0.034,0.008,1.059,4.21,-4.47,-17.98
10.560997,1764971611.178881,0.155,0.623,1.321,15.22,-20.52,-33.51,0.081,0.075,1.006,5.53,-4.75,-18.14
10.579,1764971611.196736,0.09,0.33,1.108,8.46,-23.05,-33.3,0.046,0.093,0.965,6.91,-4.88,-18.44
10.597001,1764971611.214775,0.302,0.199,0.797,1.41,-25.67,-32.9,0.084,0.126,0.962,7.98,-5.07,-18.77
10.615,1764971611.2327669,0.171,-0.063,0.363,-4.07,-26.43,-33.15,0.06,0.126,0.962,8.71,-5.21,-19.11
10.632999,1764971611.250766,0.39,-0.031,0.356,-7.27,-26.66,-33.42,0.053,0.11,0.925,8.79,-5.28,-19.33
10.650997,1764971611.2687528,0.452,0.029,0.557,-8.92,-26.52,-33.61,0.099,0.14,0.917,8.44,-5.35,-19.61
10.669,1764971611.286787,0.509,-0.033,0.657,-9.64,-26.44,-33.81,0.087,0.159,0.957,7.68,-5.22,-19.83
10.687,1764971611.306593,0.48,0.133,0.879,-9.59,-26.41,-33.97,0.057,0.129,0.965,6.71,-5.11,-19.96
10.705,1764971611.322669,0.33,0.163,1.076,-8.51,-25.84,-33.95,0.06,0.105,0.986,5.65,-4.86,-19.96
10.722999,1764971611.3407612,0.232,0.185,1.611,-5.37,-25.03,-33.99,0.057,0.074,1.004,4.76,-4.66,-19.93
10.741,1764971611.358648,0.029,0.567,2.28,-0.92,-24.68,-33.79,0.024,0.072,1.027,4.2,-4.45,-19.77
10.759,1764971611.3767,-0.035,0.505,2.316,2.49,-25.01,-33.21,-0.0,0.032,0.935,4.53,-4.36,-19.51
10.776996,1764971611.3947048,-0.058,0.464,1.835,4.79,-25.28,-32.6,0.05,0.09,0.998,4.9,-4.18,-19.32
10.794998,1764971611.4127429,0.327,0.011,0.794,6.86,-25.37,-32.12,0.015,0.101,1.014,5.19,-3.82,-19.07
10.812999,1764971611.4306839,0.694,-0.174,-0.11,4.99,-27.32,-31.17,0.072,0.081,1.01,5.3,-3.76,-18.54
10.830999,1764971611.448731,0.833,-0.624,-0.615,2.34,-28.39,-29.81,0.12,0.089,0.983,5.24,-3.75,-18.04
10.849,1764971611.4672399,0.819,-1.414,-0.713,-1.13,-28.29,-29.65,0.058,0.065,1.02,5.04,-3.8,-17.76
10.867,1764971611.4845471,0.446,-1.19,-0.052,-6.04,-28.4,-30.05,0.058,0.05,0.955,4.9,-3.81,-17.77
10.885,1764971611.502572,0.15,-0.68,1.075,-8.68,-27.47,-31.56,0.131,0.059,1.009,4.81,-4.03,-18.03
10.903,1764971611.5205572,-0.041,0.918,2.121,-9.15,-26.77,-33.03,0.111,0.052,1.061,4.7,-4.38,-18.61
10.921,1764971611.538553,-0.306,1.538,2.717,-6.77,-25.93,-33.56,-0.009,-0.008,0.954,4.51,-4.47,-19.12
10.938999,1764971611.556612,-0.415,1.813,2.636,-4.17,-26.25,-33.46,-0.074,0.112,0.958,4.32,-4.54,-19.21
10.956997,1764971611.5747929,-0.288,1.633,2.199,0.1,-25.66,-32.88,0.179,0.055,1.041,4.23,-4.62,-19.4
10.974999,1764971611.592465,0.4,0.78,1.397,4.45,-24.99,-31.33,0.016,0.078,0.981,4.1,-4.6,-19.43
10.993,1764971611.6105769,1.392,-0.621,-0.176,3.01,-27.17,-29.04,0.085,0.076,0.992,4.05,-4.8,-19.13
11.011,1764971611.6285162,1.467,-2.428,-1.355,-1.57,-28.17,-28.24,0.079,0.056,0.969,4.07,-4.63,-18.67
11.028999,1764971611.64666,0.477,-2.426,-0.806,-6.49,-27.94,-30.17,-0.007,0.034,0.999,4.14,-4.41,-18.27
11.047,1764971611.66446,0.164,-0.982,0.815,-9.17,-27.37,-32.3,0.06,-0.033,0.991,4.06,-4.38,-18.24
11.065,1764971611.682451,-0.048,1.004,2.269,-9.09,-26.12,-33.29,0.115,0.017,1.058,4.2,-4.42,-18.51
11.082997,1764971611.700798,-0.914,2.21,2.508,-8.77,-26.37,-32.94,-0.001,0.131,1.114,4.19,-4.21,-18.73
11.101,1764971611.7185311,-0.166,2.186,2.438,-6.3,-26.09,-32.41,-0.282,0.078,0.961,4.12,-3.36,-18.27
11.118999,1764971611.73651,-0.272,1.129,1.999,-1.97,-24.44,-31.86,0.194,0.108,1.028,4.11,-3.45,-17.99
11.137,1764971611.754368,0.498,0.164,1.154,0.25,-23.65,-30.52,0.199,0.047,1.035,3.85,-3.73,-17.81
11.155001,1764971611.77249,1.361,-1.892,-0.484,-2.61,-23.41,-29.84,0.105,0.064,0.989,3.6,-3.98,-17.65
11.172999,1764971611.790377,0.868,-2.001,-0.605,-7.04,-22.81,-30.88,0.06,-0.021,1.043,3.5,-4.19,-17.53
11.190999,1764971611.808316,0.276,-0.795,0.468,-10.05,-23.81,-31.92,0.025,0.036,0.986,3.74,-4.21,-17.66
11.208999,1764971611.826277,-0.116,0.376,1.538,-10.66,-24.13,-31.83,0.053,0.048,1.034,4.02,-4.24,-17.8
11.226999,1764971611.844327,-0.324,1.355,2.015,-10.48,-23.67,-31.89,0.0,-0.004,0.979,4.11,-3.83,-18.34
11.244997,1764971611.862355,-0.015,1.457,1.818,-8.4,-22.6,-32.16,-0.091,0.078,0.982,3.97,-3.53,-18.6
11.262996,1764971611.8802822,-0.04,1.523,1.636,-4.69,-21.42,-31.85,0.102,0.118,0.981,4.07,-3.63,-18.47
11.281003,1764971611.898378,-0.047,1.379,1.364,0.53,-19.2,-30.93,0.085,0.086,0.951,3.99,-3.7,-18.51
11.298999,1764971611.916242,0.511,0.439,1.139,4.52,-17.53,-29.18,0.057,0.083,0.976,3.87,-3.77,-18.34
11.316999,1764971611.934203,1.036,-2.009,0.333,3.33,-17.23,-28.96,0.049,0.037,0.997,3.72,-3.88,-17.8
11.335,1764971611.952161,0.389,-2.935,-0.723,-1.49,-16.82,-30.7,0.052,0.063,1.008,3.71,-3.95,-17.27
11.353,1764971611.970242,0.598,-0.99,0.347,-4.84,-17.76,-31.71,0.064,0.039,1.006,3.69,-4.06,-17.3
11.371,1764971611.98819,-0.04,0.694,1.472,-4.77,-18.05,-32.34,0.038,0.053,0.995,3.75,-4.17,-17.58
11.389,1764971612.006115,-0.693,2.179,2.145,-4.95,-17.95,-32.98,-0.074,-0.102,1.0,3.47,-3.6,-18.02
11.406998,1764971612.024108,-0.277,2.173,1.698,-2.83,-17.37,-33.14,-0.055,0.113,0.976,3.2,-3.19,-18.71
11.424997,1764971612.042103,-0.114,1.719,1.759,0.63,-16.3,-32.57,0.1,0.114,0.903,3.18,-3.05,-18.78
11.443,1764971612.06004,0.078,1.174,1.41,5.81,-14.53,-31.36,0.223,0.086,0.981,3.21,-3.25,-18.74
11.460996,1764971612.0780668,1.102,-1.048,0.51,7.06,-14.21,-29.27,0.054,0.061,0.988,3.08,-3.48,-18.67
11.479001,1764971612.095903,0.848,-2.421,0.069,4.51,-13.84,-29.7,0.09,0.049,0.986,2.79,-3.91,-18.37
11.496999,1764971612.113923,0.597,-1.292,0.05,0.89,-14.99,-31.23,0.033,0.04,1.0,2.61,-4.05,-18.27
11.515,1764971612.1318772,0.252,-0.197,0.753,-1.74,-16.74,-32.15,0.073,0.036,1.009,2.67,-4.3,-18.55
11.532999,1764971612.149848,-0.415,0.988,1.808,-2.54,-16.79,-33.15,-0.003,0.074,0.968,2.9,-4.21,-18.75
11.55,1764971612.166904,-0.757,2.0,1.92,-2.84,-15.67,-33.36,0.059,0.01,1.032,3.04,-3.93,-18.89
11.567999,1764971612.184913,-0.489,1.805,1.932,-0.24,-13.9,-33.29,0.016,0.004,1.017,2.88,-3.97,-19.29
11.586,1764971612.202919,-0.259,1.474,1.64,3.35,-11.85,-33.11,0.142,0.093,0.996,2.86,-4.3,-19.59
11.603997,1764971612.220886,0.546,0.524,1.099,5.93,-10.49,-31.75,0.066,0.062,1.0,2.69,-4.51,-19.67
11.622,1764971612.238861,1.319,-1.102,0.208,5.08,-9.97,-30.97,0.07,0.047,0.992,2.58,-4.72,-19.71
11.64,1764971612.256842,1.176,-1.756,-0.277,0.76,-9.95,-31.72,0.099,0.03,1.0,2.48,-5.1,-19.71
11.657999,1764971612.274837,0.803,-0.755,0.281,-2.4,-12.58,-32.69,0.06,0.052,0.962,2.42,-5.03,-19.84
11.676,1764971612.292748,0.32,0.055,0.758,-4.31,-15.29,-33.14,0.054,0.045,1.007,2.43,-4.88,-19.95
11.693999,1764971612.310804,-0.38,1.219,1.717,-3.59,-17.24,-33.57,0.054,0.048,1.017,2.5,-4.8,-19.96
11.712,1764971612.32873,-0.773,1.695,1.994,-2.56,-18.05,-33.47,0.07,0.038,0.999,2.54,-4.77,-19.97
11.73,1764971612.346681,-0.514,1.298,1.813,0.83,-16.39,-33.74,0.07,0.042,0.984,2.49,-4.91,-19.92
11.748,1764971612.364697,-0.142,1.141,1.565,3.92,-14.15,-33.55,0.062,0.047,1.01,2.33,-5.24,-19.92
11.766,1764971612.383023,0.674,0.559,0.953,6.21,-13.03,-32.32,0.063,0.051,0.997,2.16,-5.53,-19.87
11.784,1764971612.400619,1.052,-0.376,0.477,7.55,-13.39,-31.02,0.142,0.033,0.948,2.14,-5.63,-19.81
11.801999,1764971612.419057,0.451,-0.435,0.677,7.8,-14.41,-29.75,0.099,0.053,0.984,2.16,-5.47,-19.79
11.82,1764971612.436586,-0.061,-0.016,0.61,8.81,-15.13,-28.69,0.024,0.031,0.998,2.37,-4.87,-19.7
11.838001,1764971612.4546602,0.221,0.731,0.533,7.91,-12.84,-26.98,0.058,0.024,1.068,3.48,-3.79,-19.81
11.856,1764971612.472482,0.425,0.006,1.071,4.41,-9.26,-25.27,0.058,-0.039,1.401,5.13,-3.16,-19.97
11.872996,1764971612.489532,0.267,0.204,1.187,4.81,-7.75,-24.64,-0.222,0.462,0.781,8.4,-3.41,-19.76
11.890999,1764971612.507554,0.225,0.137,0.481,2.58,-5.42,-24.57,0.125,-0.008,0.671,4.86,-2.22,-18.96
11.909,1764971612.52554,0.149,-0.007,0.301,-0.44,-2.74,-24.91,0.082,-0.013,1.028,5.15,-1.96,-18.94
11.927,1764971612.5435011,0.067,-0.17,0.732,-3.19,0.16,-25.67,0.055,0.129,0.85,5.21,-1.99,-18.51
11.944996,1764971612.561592,-0.125,0.301,1.228,-6.41,3.38,-25.85,0.068,0.133,0.908,3.58,-1.51,-18.08
11.962999,1764971612.5795462,-0.5,0.038,0.746,-9.38,2.1,-26.11,-0.077,-0.239,1.14,2.72,-1.35,-17.9
11.981,1764971612.597473,-0.145,0.136,0.777,-8.64,2.46,-26.01,0.027,0.164,0.928,3.36,-1.65,-17.65
11.998999,1764971612.6156101,-0.033,0.005,0.997,-6.99,2.64,-25.88,0.061,-0.007,1.013,2.79,-1.71,-17.53
12.017,1764971612.633503,-0.063,0.094,0.951,-6.26,2.7,-25.9,0.035,-0.007,1.024,2.88,-1.64,-17.53
12.034997,1764971612.651535,0.003,0.076,0.999,-6.47,2.59,-25.92,0.023,0.046,0.974,2.88,-1.59,-17.52
12.053,1764971612.669407,-0.011,0.053,1.021,-6.43,2.53,-25.93,0.016,0.025,1.02,2.76,-1.56,-17.52
12.070996,1764971612.687923,-0.003,0.059,1.001,-6.19,2.5,-25.92,0.017,0.035,0.992,2.81,-1.55,-17.51
12.089,1764971612.705468,0.004,0.061,1.005,-6.02,2.45,-25.92,0.017,0.034,1.001,2.75,-1.51,-17.51
12.107,1764971612.725099,-0.004,0.062,1.007,-5.88,2.42,-25.92,0.019,0.033,0.999,2.76,-1.5,-17.51
12.125001,1764971612.741363,-0.002,0.062,1.008,-5.72,2.38,-25.92,0.016,0.033,0.994,2.7,-1.49,-17.51
12.143,1764971612.759464,0.002,0.063,1.006,-5.55,2.34,-25.92,0.014,0.031,0.994,2.7,-1.46,-17.51
12.161,1764971612.777482,0.001,0.062,1.007,-5.41,2.3,-25.92,0.021,0.034,0.997,2.68,-1.45,-17.5
12.179,1764971612.7953448,-0.002,0.059,1.007,-5.25,2.26,-25.92,0.017,0.037,0.997,2.67,-1.43,-17.5
12.196997,1764971612.813329,-0.002,0.059,1.009,-5.11,2.23,-25.92,0.017,0.034,1.005,2.64,-1.43,-17.5
12.213997,1764971612.830328,-0.005,0.058,1.003,-4.95,2.19,-25.92,0.02,0.037,0.992,2.63,-1.42,-17.5
12.232,1764971612.848258,0.001,0.057,1.002,-4.81,2.15,-25.92,0.025,0.081,0.855,4.33,-1.76,-17.7
12.249999,1764971612.866294,0.001,0.059,1.005,-4.67,2.13,-25.93,-0.028,0.215,1.109,7.08,-2.34,-17.9
12.267999,1764971612.8845062,0.001,0.064,1.0,-4.6,2.05,-25.96,-0.006,0.144,0.954,8.11,-2.56,-17.95
12.286,1764971612.902285,0.017,0.053,1.02,-4.52,1.98,-26.06,0.156,0.011,1.092,10.19,-2.95,-18.37
12.304,1764971612.920327,-0.035,0.047,0.995,-4.48,1.92,-26.08,-0.014,0.144,0.898,11.18,-3.07,-18.35
12.322,1764971612.9381871,0.006,0.05,1.009,-4.31,1.85,-26.08,-0.015,0.155,0.848,11.81,-2.96,-18.36
12.339999,1764971612.956291,-0.011,0.057,1.009,-4.25,1.78,-26.14,0.164,0.125,1.537,15.61,-3.77,-19.03
12.357999,1764971612.974208,-0.006,0.044,1.002,-4.18,1.63,-26.1,0.054,0.185,0.889,24.36,-6.4,-21.13
12.376,1764971612.99215,0.034,0.052,1.0,-4.01,1.44,-26.03,-0.001,0.428,0.49,32.65,-8.06,-22.8
12.394001,1764971613.010151,0.007,0.057,1.017,-3.55,1.48,-25.99,0.057,0.609,0.63,38.03,-9.35,-24.03
12.412,1764971613.0282292,0.009,0.064,0.996,-3.17,1.5,-25.91,0.081,0.596,0.605,42.73,-10.21,-24.84
12.43,1764971613.04612,0.007,0.058,1.001,-2.88,1.58,-25.93,0.148,1.233,0.945,48.79,-11.98,-25.57
12.447001,1764971613.063148,0.014,0.069,0.997,-2.44,1.7,-25.98,0.191,1.193,1.062,57.11,-12.63,-25.77
12.465001,1764971613.0811672,-0.014,0.056,1.04,-1.62,2.02,-25.92,-0.003,0.39,0.64,64.27,-13.31,-25.94
12.482997,1764971613.099094,-0.048,0.086,1.044,-0.68,2.57,-25.81,0.03,0.457,0.272,68.08,-13.88,-26.32
12.500999,1764971613.11714,-0.041,0.109,0.978,0.01,2.87,-25.61,0.123,0.771,-0.012,70.75,-14.08,-26.96
12.518997,1764971613.135041,-0.004,0.143,0.977,0.17,2.81,-25.57,-0.094,0.904,0.004,70.17,-13.09,-27.48
12.537,1764971613.153128,0.002,0.121,0.967,-0.31,2.53,-25.73,-0.062,0.904,-0.154,65.44,-14.39,-27.2
12.554999,1764971613.1711092,0.02,0.094,1.026,-0.88,2.3,-25.96,0.331,0.606,0.288,56.93,-11.72,-27.34
12.573,1764971613.188983,0.017,0.088,1.024,-1.24,2.3,-26.2,0.122,0.836,1.014,52.2,-10.53,-27.46
12.59,1764971613.206079,-0.004,0.055,1.007,-1.48,2.03,-26.22,0.004,0.605,0.735,50.97,-10.28,-27.53
12.607999,1764971613.224014,-0.092,0.062,1.019,-1.41,1.95,-26.21,0.035,0.746,0.538,49.34,-10.05,-27.39
12.626,1764971613.2420201,-0.03,0.089,1.012,-1.27,1.99,-26.18,-0.099,0.753,0.553,46.95,-9.94,-26.72
12.644,1764971613.260096,-0.012,0.073,1.002,-1.31,1.93,-26.18,0.006,0.604,0.614,44.63,-9.98,-26.19
12.661999,1764971613.278017,-0.002,0.07,1.016,-1.35,1.85,-26.18,0.04,0.702,0.308,43.28,-9.84,-25.56
12.679999,1764971613.296055,-0.012,0.066,1.008,-1.37,1.86,-26.23,0.008,0.403,0.448,42.35,-9.04,-25.32
12.697999,1764971613.313907,-0.019,0.065,1.004,-1.35,1.83,-26.26,0.103,0.672,0.942,37.14,-8.7,-24.61
12.716,1764971613.331924,0.005,0.07,0.999,-1.44,1.64,-26.27,0.163,0.431,2.095,33.26,-9.27,-24.41
12.733997,1764971613.3498502,-0.011,0.067,0.981,-1.57,1.45,-26.29,0.069,0.716,0.566,33.23,-9.3,-23.96
12.752,1764971613.36782,0.002,0.057,1.028,-1.71,1.41,-26.36,0.044,0.357,0.707,31.19,-9.27,-23.31
12.77,1764971613.385963,-0.005,0.056,0.991,-1.53,1.37,-26.4,0.22,0.543,1.12,30.68,-9.5,-22.93
12.787996,1764971613.4038541,0.018,0.063,1.004,-1.45,1.32,-26.41,0.168,0.94,0.831,28.67,-9.73,-22.03
12.806,1764971613.4218209,0.119,0.088,1.013,-1.29,1.29,-26.66,0.238,0.209,0.934,26.09,-10.61,-21.5
12.822998,1764971613.438773,0.039,0.09,0.987,-1.29,1.28,-26.95,0.054,0.213,1.064,23.09,-11.71,-20.94
12.839999,1764971613.455791,-0.039,0.023,0.987,-1.51,1.17,-27.11,0.144,0.212,0.878,19.77,-12.84,-19.83
12.857999,1764971613.473751,-0.065,0.05,1.01,-1.69,1.14,-27.12,0.241,0.139,0.84,16.71,-14.04,-18.85
12.875997,1764971613.491946,-0.062,0.027,1.008,-1.56,1.21,-26.95,0.27,0.239,1.083,13.04,-14.69,-17.95
12.893999,1764971613.50972,-0.019,0.033,1.009,-1.42,1.3,-26.76,0.249,0.271,1.358,8.04,-15.83,-16.78
12.912,1764971613.528091,-0.053,0.058,0.963,-1.45,1.33,-26.61,0.29,0.035,1.095,2.9,-17.46,-15.49
12.93,1764971613.5458062,0.004,0.034,0.999,-1.82,1.27,-26.38,0.304,-0.065,1.045,-2.0,-18.97,-13.91
12.948,1764971613.5636532,-0.065,0.015,1.008,-2.26,1.41,-25.99,0.386,-0.14,1.052,-6.8,-20.47,-12.33
12.965,1764971613.580787,-0.002,0.011,1.015,-2.89,1.86,-25.61,0.318,-0.129,0.831,-12.28,-22.78,-10.41
12.983,1764971613.598808,-0.067,-0.021,1.046,-3.4,2.9,-25.19,0.284,-0.247,0.741,-16.53,-23.77,-8.38
13.001,1764971613.617905,-0.01,-0.055,1.027,-4.13,4.17,-24.62,0.13,-0.306,0.669,-19.17,-23.78,-7.17
13.018997,1764971613.634742,-0.12,-0.114,1.023,-5.56,4.26,-24.15,0.345,-0.173,0.845,-20.61,-23.66,-6.55
13.036999,1764971613.652802,-0.049,0.105,0.961,-6.6,4.68,-24.12,0.235,-0.308,0.84,-21.79,-23.64,-6.35
13.055,1764971613.670609,-0.015,0.041,1.002,-7.21,5.15,-24.33,0.307,-0.469,0.761,-22.26,-23.52,-6.33
13.073,1764971613.688718,-0.091,-0.056,0.946,-6.67,5.68,-24.83,0.273,-0.381,0.778,-21.89,-23.25,-6.28
13.091,1764971613.706663,-0.08,-0.053,0.987,-6.39,6.19,-25.21,0.315,-0.353,0.923,-19.87,-23.26,-6.67
13.109,1764971613.7265248,-0.064,-0.003,0.969,-5.53,6.47,-25.56,0.322,-0.326,0.872,-17.14,-23.04,-7.5
13.126998,1764971613.7425358,-0.067,0.047,0.99,-4.15,6.54,-26.09,0.231,-0.41,0.77,-12.55,-22.58,-8.66
13.144999,1764971613.760542,-0.066,0.03,0.996,-3.38,6.38,-26.51,0.238,-0.505,0.649,-5.34,-21.98,-10.27
13.163,1764971613.778618,-0.096,-0.023,0.945,-2.67,5.85,-26.68,0.266,-0.217,1.114,2.28,-21.52,-11.95
13.181,1764971613.796705,-0.113,-0.076,1.025,-2.2,5.06,-26.86,0.862,-0.075,1.166,5.59,-21.32,-13.18
13.199,1764971613.814631,-0.066,0.016,1.035,-1.34,4.45,-27.18,0.391,-0.163,1.107,7.21,-20.69,-14.01
13.217,1764971613.832586,-0.145,0.072,0.935,-1.27,4.1,-27.18,0.375,-0.168,0.952,7.38,-21.08,-13.98
13.235,1764971613.85054,-0.107,-0.03,1.001,-1.4,3.89,-26.9,0.339,-0.03,0.771,7.98,-21.07,-13.86
13.252996,1764971613.868556,0.011,-0.044,1.01,-1.71,3.67,-26.49,0.324,0.125,0.724,9.87,-21.11,-14.16
13.270999,1764971613.886554,0.025,-0.025,1.057,-1.48,3.59,-26.29,0.386,0.533,0.729,15.01,-20.81,-14.89
13.289,1764971613.904544,0.029,0.059,1.012,-0.92,3.64,-26.47,0.404,0.597,0.784,20.83,-20.92,-15.65
13.307,1764971613.92238,0.138,0.116,1.004,-0.35,3.47,-26.94,0.367,0.475,0.754,26.42,-21.17,-16.71
13.324997,1764971613.940453,0.07,0.097,1.063,0.39,3.37,-27.52,0.452,0.416,0.66,31.78,-22.01,-18.02
13.343,1764971613.958551,0.07,0.054,1.019,1.19,3.16,-28.01,0.518,0.389,0.531,36.99,-22.75,-19.44
13.361,1764971613.976407,0.08,0.07,1.03,2.24,2.79,-28.44,0.221,0.667,0.659,41.93,-21.64,-20.65
13.378996,1764971613.994473,0.054,0.05,1.028,3.05,2.43,-28.84,-0.005,0.895,0.779,46.16,-20.54,-21.51
13.397,1764971614.012453,-0.035,0.094,0.962,3.85,2.02,-29.47,0.24,1.004,0.87,50.7,-20.04,-22.17
13.414999,1764971614.030499,-0.303,0.215,0.921,3.5,1.63,-30.12,0.174,0.919,0.815,54.93,-20.04,-22.62
13.433,1764971614.0484521,-0.386,0.172,1.071,3.05,1.74,-30.61,0.25,0.787,0.791,58.22,-20.86,-23.15
13.450999,1764971614.066367,-0.23,0.121,1.04,3.85,2.36,-30.47,0.321,0.541,0.459,60.19,-21.54,-23.45
13.468999,1764971614.0843258,-0.122,-0.01,0.941,4.97,2.9,-29.82,0.29,0.598,0.522,60.69,-21.55,-23.68
13.487,1764971614.1023061,0.01,-0.025,0.933,4.86,2.9,-29.27,0.252,0.711,0.465,59.95,-21.27,-23.91
13.504999,1764971614.120417,-0.026,-0.003,0.966,4.19,2.45,-28.89,0.154,0.716,0.435,57.41,-20.48,-24.37
13.523,1764971614.1383529,-0.043,0.031,1.005,3.36,1.9,-28.52,0.347,0.664,0.416,52.63,-19.74,-24.92
13.541,1764971614.1563451,-0.016,0.054,1.019,2.52,1.43,-28.19,0.22,0.448,0.479,46.99,-19.64,-24.66
13.559,1764971614.174384,0.083,0.062,1.011,1.62,0.86,-27.73,0.138,0.589,0.752,41.54,-19.19,-24.12
13.576995,1764971614.19225,0.052,0.022,1.012,0.9,0.44,-27.25,0.281,0.826,0.686,38.88,-18.87,-24.26
13.595001,1764971614.210175,0.004,0.034,1.011,0.34,0.15,-26.82,0.284,0.709,0.794,36.23,-18.72,-24.28
13.613,1764971614.22826,0.01,0.033,1.005,0.1,0.03,-26.42,0.356,0.753,1.001,32.6,-19.88,-24.4
13.630999,1764971614.2462451,-0.004,0.069,0.975,0.02,-0.0,-26.07,0.41,0.661,0.695,29.8,-21.37,-24.27
13.649,1764971614.264263,0.045,0.041,1.025,-0.09,0.06,-25.55,0.38,0.574,0.582,27.16,-22.98,-23.5
13.666997,1764971614.2820768,0.063,0.03,1.014,-0.1,0.12,-25.07,0.218,0.26,0.83,22.99,-23.73,-22.6
13.683997,1764971614.2990441,0.006,0.023,1.007,-0.02,0.31,-24.63,0.206,-0.16,0.829,18.4,-23.84,-21.6
13.700999,1764971614.316152,-0.04,0.011,0.979,-0.24,0.49,-24.16,0.254,-0.004,0.77,13.99,-24.16,-20.97
13.718997,1764971614.334154,-0.008,0.006,1.04,-0.6,0.67,-23.71,0.197,0.121,0.87,9.45,-23.45,-20.48
13.736996,1764971614.352076,-0.027,0.021,0.999,-0.86,0.91,-23.23,0.289,-0.021,1.11,4.96,-22.89,-20.25
13.755,1764971614.370111,-0.086,-0.027,0.997,-1.19,1.24,-22.73,0.376,0.551,0.927,1.01,-22.53,-19.84
13.772998,1764971614.388154,-0.034,-0.01,1.081,-1.93,1.43,-22.18,0.358,0.388,0.933,-2.12,-22.15,-19.29
13.790999,1764971614.40607,0.208,0.015,1.006,-2.07,1.28,-21.82,0.37,0.955,1.239,-3.19,-22.13,-18.54
13.808997,1764971614.424005,0.155,0.209,1.049,-1.73,1.56,-22.19,0.281,0.038,1.197,-4.86,-22.64,-17.27
13.825996,1764971614.4410439,-0.04,0.094,1.001,-1.63,1.78,-22.64,0.247,-0.153,1.226,-5.59,-22.87,-16.28
13.843999,1764971614.459011,-0.053,-0.014,0.979,-1.67,1.93,-23.0,0.33,0.012,1.188,-5.56,-23.86,-15.14
13.861996,1764971614.476953,-0.046,-0.009,0.992,-1.63,2.06,-23.13,0.267,0.264,1.254,-4.35,-25.26,-14.04
13.88,1764971614.495002,-0.038,0.021,0.995,-1.5,2.4,-23.27,0.287,0.242,1.143,-2.04,-26.27,-12.7
13.898,1764971614.512907,-0.063,0.038,1.003,-1.29,2.91,-23.56,0.323,-0.328,0.977,0.85,-26.91,-12.64
13.915,1764971614.530009,-0.23,0.183,0.994,-0.97,3.98,-24.18,0.481,-0.195,0.232,2.71,-26.59,-12.38
13.932999,1764971614.548237,-0.146,0.199,1.0,-0.58,5.77,-24.99,0.535,-0.608,-0.183,1.32,-27.73,-12.63
13.950997,1764971614.565963,0.242,-0.121,1.021,-0.66,6.42,-25.12,0.641,-1.087,-0.169,-0.46,-28.58,-12.3
13.968999,1764971614.584446,0.138,-0.26,0.988,-1.12,5.9,-24.59,0.441,-0.933,0.15,-1.78,-27.14,-12.62
13.987,1764971614.601865,-0.083,-0.093,0.864,-1.38,4.66,-23.76,0.186,-0.37,0.733,-2.14,-25.17,-13.39
14.005,1764971614.619872,-0.089,-0.14,1.007,-0.78,3.35,-22.88,-0.519,0.713,1.695,-1.44,-21.29,-15.46
14.023001,1764971614.637802,-0.07,-0.123,0.979,-0.03,1.89,-22.19,-0.029,0.889,2.072,0.24,-19.43,-17.64
14.041,1764971614.65587,-0.02,0.01,0.998,-0.55,0.61,-22.21,0.151,1.375,2.169,1.96,-19.17,-17.08
14.058996,1764971614.6738071,-0.104,0.333,1.11,-0.93,0.24,-23.01,-0.356,0.719,1.88,3.91,-19.16,-16.48
14.075999,1764971614.6907861,0.012,0.155,1.028,-0.62,-0.2,-23.79,0.27,0.643,1.126,6.56,-18.73,-14.73
14.093999,1764971614.708781,0.007,0.061,1.023,-0.46,-0.35,-24.55,0.57,0.029,0.449,6.6,-20.88,-12.47
14.112001,1764971614.726868,-0.037,0.151,1.017,0.04,-0.22,-25.88,0.719,-0.748,-0.341,3.07,-22.57,-11.39
14.13,1764971614.744819,0.195,0.119,1.068,-0.39,0.74,-26.96,0.679,-0.972,-0.044,2.88,-23.31,-11.27
14.148,1764971614.762753,0.139,-0.167,1.019,-0.59,1.45,-27.09,0.301,-1.02,0.589,3.18,-22.52,-11.7
14.166,1764971614.7807841,-0.156,-0.107,0.936,-0.85,1.33,-26.63,-0.095,-0.455,1.35,4.62,-21.03,-12.33
14.183999,1764971614.798683,-0.095,-0.16,0.929,-1.14,0.64,-25.62,-0.326,0.587,1.589,3.77,-19.56,-13.68
14.201999,1764971614.816703,-0.19,-0.135,0.995,-0.63,-0.31,-24.33,-0.009,1.285,2.023,3.67,-19.25,-14.22
14.219999,1764971614.834708,0.079,0.079,1.033,-0.52,-0.45,-24.11,0.093,1.192,1.665,4.64,-20.29,-13.54
14.237997,1764971614.852741,-0.073,0.157,0.992,-0.34,-0.51,-24.66,-0.044,0.765,1.504,5.7,-20.17,-12.17
14.255997,1764971614.87062,-0.092,0.081,1.028,-0.22,-0.65,-25.36,0.294,-0.089,0.921,6.12,-21.11,-10.82
14.273996,1764971614.888632,-0.138,0.243,0.937,0.28,-0.07,-25.96,0.788,-0.609,0.068,3.65,-22.09,-10.3
14.291996,1764971614.906639,0.046,-0.012,1.095,-0.01,1.19,-26.02,0.565,-1.244,-0.34,0.6,-21.45,-9.95
14.31,1764971614.9246368,0.189,-0.342,0.933,-0.73,1.58,-25.37,0.388,-0.885,0.148,-1.49,-21.28,-10.38
14.328,1764971614.942642,-0.048,-0.052,0.985,-1.1,1.17,-24.68,-0.266,-0.11,0.84,-0.62,-19.21,-11.19
14.346,1764971614.9605162,0.021,-0.13,1.002,-1.26,0.34,-23.82,-0.523,1.31,1.408,-0.16,-16.54,-12.23
14.364,1764971614.97858,0.044,-0.051,0.975,-0.9,-0.27,-23.31,0.131,1.26,1.829,0.51,-15.83,-12.49
14.382,1764971614.9965172,0.039,0.179,1.025,-0.65,-0.44,-23.73,0.233,0.898,1.71,1.59,-16.33,-11.9
14.4,1764971615.014535,0.007,0.128,1.009,-0.47,-0.54,-24.19,0.104,0.613,1.463,2.69,-17.34,-11.21
14.418,1764971615.0325172,0.099,0.077,1.013,-0.28,-0.68,-24.78,0.292,0.471,1.294,3.21,-19.43,-10.44
14.435999,1764971615.0505269,-0.262,0.216,1.047,0.07,-0.57,-25.68,0.384,-0.246,0.652,2.21,-21.48,-9.4
14.454,1764971615.0685859,-0.214,0.261,1.009,0.38,0.78,-26.34,0.441,-0.538,0.107,1.26,-22.06,-8.9
14.471997,1764971615.086535,0.05,-0.01,1.085,0.48,2.16,-26.17,0.311,-0.56,0.152,0.61,-22.14,-8.62
14.49,1764971615.104498,0.184,-0.299,0.929,0.11,2.75,-25.53,0.415,-0.352,0.56,1.27,-21.26,-8.64
14.507999,1764971615.1224399,0.129,-0.306,0.93,-0.84,2.06,-25.12,0.226,0.043,0.546,4.6,-18.51,-8.91
14.526,1764971615.140863,0.151,-0.029,1.042,-0.89,0.96,-25.01,0.044,-0.021,0.258,2.13,-16.05,-8.58
14.544,1764971615.158529,0.033,0.012,1.133,-0.49,-0.25,-25.16,-0.207,0.224,0.332,1.73,-12.63,-8.93
14.561999,1764971615.1764648,-0.104,0.054,1.002,-0.18,-0.66,-25.29,-0.169,0.195,0.51,0.35,-7.79,-8.96
14.58,1764971615.194387,0.028,0.092,1.026,-0.04,-1.49,-25.61,0.232,1.155,4.165,-8.17,-3.16,-7.16
14.598,1764971615.213803,0.036,0.009,0.96,-0.15,-2.25,-25.97,0.255,-0.492,1.963,-5.18,-1.78,-7.99
14.616001,1764971615.2303302,0.094,-0.011,0.92,-0.02,-2.48,-26.0,0.034,-0.189,0.855,-3.27,-2.37,-7.68
14.634,1764971615.248311,0.023,0.007,1.017,0.12,-2.18,-25.9,0.056,0.283,0.725,-3.48,-2.06,-7.89
14.652,1764971615.2662249,0.073,0.003,0.968,0.13,-2.42,-25.92,0.016,-0.005,1.101,-3.71,-1.82,-7.82
14.669997,1764971615.284373,0.042,0.013,0.998,0.16,-2.32,-25.91,0.023,0.06,0.963,-3.53,-1.87,-7.83
14.687997,1764971615.302325,0.031,0.011,1.021,0.16,-2.32,-25.9,0.021,0.04,1.037,-3.15,-1.93,-7.83
14.706,1764971615.320229,0.049,0.009,0.998,0.17,-2.33,-25.91,0.025,0.061,0.931,-3.28,-1.8,-7.82
14.724,1764971615.338252,0.041,0.011,1.005,0.18,-2.35,-25.91,0.016,0.044,1.023,-3.31,-1.75,-7.82
14.742001,1764971615.356241,0.036,0.012,1.003,0.19,-2.32,-25.91,0.027,0.055,0.995,-2.94,-1.78,-7.81
14.759999,1764971615.374323,0.039,0.014,1.007,0.21,-2.3,-25.91,0.034,0.06,0.971,-2.97,-1.72,-7.82
14.778,1764971615.3921611,0.042,0.011,1.008,0.21,-2.3,-25.91,0.02,0.045,1.017,-2.91,-1.71,-7.82
14.795998,1764971615.4102201,0.038,0.01,1.002,0.21,-2.31,-25.91,0.026,0.055,0.978,-2.71,-1.72,-7.81
14.814,1764971615.4281971,0.04,0.012,1.003,0.22,-2.31,-25.91,0.02,0.047,0.987,-2.71,-1.67,-7.82
14.832,1764971615.4461792,0.035,0.011,1.002,0.23,-2.31,-25.91,0.023,0.048,1.002,-2.58,-1.66,-7.81
14.849001,1764971615.463104,0.041,0.01,1.003,0.24,-2.3,-25.91,0.029,0.054,0.985,-2.44,-1.66,-7.81
14.865999,1764971615.480047,0.041,0.011,1.004,0.25,-2.29,-25.92,0.026,0.052,0.992,-2.38,-1.64,-7.81
14.883999,1764971615.498144,0.039,0.008,1.008,0.25,-2.29,-25.92,0.019,0.05,0.996,-2.28,-1.63,-7.81
14.902,1764971615.5160692,0.039,0.012,1.008,0.26,-2.3,-25.92,0.025,0.05,0.991,-2.17,-1.62,-7.81
14.919999,1764971615.534059,0.039,0.009,1.005,0.26,-2.29,-25.92,0.024,0.047,0.99,-2.1,-1.6,-7.81
14.937997,1764971615.552027,0.038,0.011,1.003,0.27,-2.29,-25.92,0.024,0.05,0.993,-2.0,-1.59,-7.81
14.956001,1764971615.569941,0.038,0.01,1.001,0.28,-2.28,-25.92,0.023,0.047,0.995,-1.91,-1.59,-7.81
14.972996,1764971615.5869281,0.041,0.009,1.002,0.28,-2.28,-25.92,0.024,0.046,0.99,-1.84,-1.57,-7.81
14.991,1764971615.604905,0.039,0.014,1.0,0.3,-2.28,-25.92,0.023,0.049,0.995,-1.76,-1.56,-7.8
15.008997,1764971615.622899,0.037,0.013,1.006,0.31,-2.28,-25.92,0.026,0.048,0.993,-1.67,-1.56,-7.8
15.027,1764971615.6408901,0.036,0.009,1.008,0.31,-2.27,-25.92,0.026,0.051,0.99,-1.59,-1.55,-7.8
15.045,1764971615.658881,0.038,0.014,1.001,0.32,-2.27,-25.93,0.024,0.048,0.996,-1.51,-1.54,-7.8
15.062999,1764971615.676846,0.042,0.011,1.006,0.33,-2.27,-25.93,0.022,0.044,0.992,-1.44,-1.53,-7.8
15.079999,1764971615.693851,0.04,0.009,0.998,0.33,-2.27,-25.93,0.025,0.046,0.993,-1.36,-1.52,-7.8
15.097,1764971615.710815,0.038,0.012,1.004,0.34,-2.27,-25.93,0.022,0.048,0.991,-1.29,-1.51,-7.8
15.113999,1764971615.728406,0.038,0.009,1.005,0.34,-2.26,-25.93,0.019,0.044,0.99,-1.22,-1.5,-7.8
15.131999,1764971615.7459111,0.038,0.01,1.007,0.35,-2.26,-25.93,0.024,0.049,0.994,-1.14,-1.49,-7.79
15.15,1764971615.763817,0.04,0.012,1.006,0.36,-2.26,-25.93,0.023,0.046,0.996,-1.08,-1.48,-7.79
15.168,1764971615.781823,0.037,0.013,1.002,0.36,-2.26,-25.93,0.02,0.048,0.997,-1.01,-1.47,-7.79
15.185999,1764971615.7997172,0.04,0.009,1.006,0.37,-2.26,-25.93,0.02,0.046,0.992,-0.95,-1.46,-7.79
15.203,1764971615.8168828,0.04,0.014,1.005,0.38,-2.26,-25.93,0.025,0.05,0.991,-0.88,-1.46,-7.79
15.219999,1764971615.8337421,0.041,0.012,1.005,0.38,-2.26,-25.93,0.021,0.048,0.993,-0.81,-1.45,-7.79
15.237,1764971615.850705,0.037,0.008,1.004,0.38,-2.25,-25.93,0.021,0.048,0.992,-0.75,-1.44,-7.79
15.254,1764971615.867695,0.037,0.008,1.003,0.38,-2.25,-25.93,0.02,0.045,0.993,-0.68,-1.42,-7.79
15.272,1764971615.885718,0.038,0.01,1.002,0.38,-2.25,-25.93,0.023,0.044,0.993,-0.62,-1.42,-7.79
15.289,1764971615.9027278,0.041,0.011,1.003,0.38,-2.25,-25.93,0.025,0.049,0.993,-0.56,-1.41,-7.79
15.305999,1764971615.919689,0.042,0.008,1.004,0.39,-2.25,-25.93,0.023,0.044,0.998,-0.5,-1.41,-7.79
15.323999,1764971615.9378061,0.038,0.009,1.005,0.39,-2.24,-25.93,0.018,0.049,0.992,-0.44,-1.4,-7.79
15.341,1764971615.9547038,0.039,0.014,1.004,0.4,-2.24,-25.93,0.024,0.047,0.993,-0.38,-1.4,-7.79
15.359,1764971615.972642,0.038,0.01,1.006,0.4,-2.24,-25.93,0.019,0.048,0.997,-0.33,-1.38,-7.79
15.377,1764971615.9906938,0.038,0.007,1.005,0.4,-2.24,-25.93,0.022,0.044,0.997,-0.27,-1.38,-7.79
15.394999,1764971616.0087318,0.037,0.012,1.007,0.4,-2.23,-25.93,0.022,0.046,0.995,-0.21,-1.37,-7.79
15.413,1764971616.0266712,0.038,0.009,1.005,0.41,-2.23,-25.93,0.022,0.039,0.995,-0.17,-1.37,-7.78
15.430997,1764971616.0445719,0.04,0.011,1.003,0.41,-2.23,-25.93,0.021,0.044,0.996,-0.12,-1.35,-7.78
15.448999,1764971616.062659,0.039,0.012,1.003,0.42,-2.23,-25.94,0.02,0.046,0.996,-0.07,-1.35,-7.78
15.466997,1764971616.080564,0.039,0.011,1.007,0.42,-2.23,-25.94,0.024,0.048,0.996,-0.02,-1.35,-7.78
15.484,1764971616.097541,0.036,0.012,1.005,0.43,-2.22,-25.94,0.024,0.047,0.995,0.02,-1.34,-7.78
15.501,1764971616.114526,0.036,0.01,1.001,0.44,-2.22,-25.94,0.02,0.044,0.996,0.07,-1.34,-7.78
15.518997,1764971616.1325812,0.04,0.013,1.007,0.44,-2.22,-25.94,0.02,0.046,0.993,0.12,-1.34,-7.78
15.537,1764971616.1504471,0.038,0.012,1.003,0.45,-2.22,-25.94,0.016,0.048,0.996,0.17,-1.32,-7.78
15.555,1764971616.168448,0.035,0.008,1.003,0.45,-2.21,-25.94,0.023,0.044,0.996,0.21,-1.32,-7.78
15.572998,1764971616.186504,0.039,0.008,1.002,0.45,-2.21,-25.94,0.027,0.04,0.992,0.24,-1.32,-7.77
15.591,1764971616.204418,0.039,0.008,1.007,0.45,-2.21,-25.94,0.022,0.049,0.997,0.29,-1.32,-7.77
15.608,1764971616.221434,0.04,0.008,1.005,0.45,-2.21,-25.94,0.022,0.047,0.994,0.33,-1.31,-7.77
15.625,1764971616.238391,0.037,0.007,1.006,0.45,-2.21,-25.94,0.016,0.047,0.995,0.37,-1.3,-7.77
15.642997,1764971616.256417,0.037,0.006,1.006,0.45,-2.21,-25.94,0.019,0.045,0.998,0.42,-1.3,-7.77
15.661,1764971616.274613,0.042,0.015,1.003,0.46,-2.21,-25.95,0.022,0.045,0.992,0.46,-1.29,-7.77
15.679,1764971616.292356,0.036,0.012,1.004,0.46,-2.21,-25.95,0.019,0.041,0.993,0.49,-1.29,-7.77
15.696996,1764971616.310383,0.04,0.012,1.003,0.46,-2.2,-25.95,0.018,0.042,0.995,0.52,-1.28,-7.77
15.715,1764971616.328398,0.038,0.011,1.006,0.47,-2.2,-25.95,0.022,0.044,0.996,0.56,-1.27,-7.76
15.732999,1764971616.346389,0.037,0.012,1.001,0.47,-2.2,-25.95,0.022,0.041,0.994,0.59,-1.27,-7.76
15.751,1764971616.364352,0.036,0.011,1.007,0.48,-2.19,-25.95,0.021,0.042,0.997,0.62,-1.27,-7.76
15.769001,1764971616.382359,0.036,0.014,1.005,0.48,-2.19,-25.95,0.018,0.046,0.992,0.66,-1.26,-7.76
15.787,1764971616.400213,0.037,0.012,1.006,0.48,-2.19,-25.95,0.024,0.045,0.992,0.7,-1.26,-7.77
15.804,1764971616.417216,0.038,0.011,1.003,0.49,-2.19,-25.95,0.023,0.043,0.996,0.73,-1.26,-7.77
15.821997,1764971616.435269,0.037,0.012,1.002,0.49,-2.19,-25.95,0.021,0.044,0.997,0.76,-1.26,-7.77
15.839999,1764971616.4533088,0.038,0.009,1.002,0.49,-2.19,-25.95,0.019,0.047,0.993,0.8,-1.25,-7.76
15.857997,1764971616.4713778,0.04,0.011,1.005,0.5,-2.19,-25.95,0.021,0.045,0.993,0.83,-1.25,-7.76
15.876,1764971616.4892979,0.038,0.01,1.003,0.5,-2.18,-25.95,0.018,0.043,0.994,0.85,-1.24,-7.76
15.894,1764971616.507253,0.04,0.009,1.009,0.49,-2.18,-25.96,0.02,0.041,0.997,0.89,-1.24,-7.76
15.912,1764971616.525203,0.036,0.012,1.001,0.5,-2.18,-25.96,0.024,0.049,0.992,0.93,-1.24,-7.76
15.93,1764971616.5435462,0.035,0.011,1.005,0.5,-2.18,-25.96,0.02,0.044,0.993,0.95,-1.24,-7.76
15.948,1764971616.5612118,0.037,0.012,1.005,0.5,-2.18,-25.96,0.017,0.037,0.995,0.97,-1.23,-7.76
15.966,1764971616.579187,0.039,0.01,1.003,0.5,-2.17,-25.96,0.025,0.044,0.995,1.0,-1.23,-7.76
15.983999,1764971616.59718,0.04,0.015,1.004,0.51,-2.17,-25.96,0.021,0.047,0.996,1.03,-1.23,-7.76
16.001998,1764971616.615077,0.036,0.011,1.006,0.51,-2.17,-25.96,0.019,0.044,0.996,1.05,-1.22,-7.76
16.018999,1764971616.6320372,0.037,0.011,1.003,0.51,-2.17,-25.96,0.017,0.043,0.998,1.08,-1.22,-7.75
16.035999,1764971616.649102,0.039,0.012,1.006,0.51,-2.17,-25.96,0.02,0.042,0.995,1.11,-1.21,-7.75
16.053,1764971616.666004,0.036,0.011,1.005,0.51,-2.17,-25.95,0.019,0.044,0.995,1.13,-1.21,-7.75
16.069999,1764971616.6830778,0.038,0.009,1.003,0.51,-2.16,-25.95,0.023,0.042,0.993,1.15,-1.21,-7.76
16.088,1764971616.7009869,0.039,0.006,1.007,0.51,-2.16,-25.96,0.018,0.042,0.996,1.18,-1.21,-7.75
16.105996,1764971616.719054,0.041,0.01,0.996,0.51,-2.17,-25.96,0.02,0.044,0.994,1.2,-1.2,-7.75
16.124,1764971616.7369092,0.039,0.012,1.003,0.51,-2.17,-25.96,0.016,0.044,0.993,1.22,-1.2,-7.75
16.140996,1764971616.753919,0.039,0.007,1.001,0.51,-2.17,-25.97,0.019,0.04,0.997,1.24,-1.19,-7.75
16.158,1764971616.7709131,0.041,0.014,1.001,0.52,-2.17,-25.97,0.021,0.045,0.991,1.27,-1.19,-7.75
16.175,1764971616.787883,0.039,0.011,1.004,0.52,-2.17,-25.97,0.023,0.046,0.999,1.29,-1.19,-7.75
16.191997,1764971616.804896,0.041,0.009,1.005,0.52,-2.17,-25.97,0.017,0.042,0.995,1.3,-1.19,-7.75
16.209997,1764971616.822897,0.041,0.008,1.007,0.52,-2.17,-25.97,0.02,0.04,0.994,1.32,-1.19,-7.75
16.228,1764971616.840974,0.04,0.01,1.008,0.52,-2.17,-25.97,0.021,0.041,0.994,1.33,-1.19,-7.75
16.246001,1764971616.8588119,0.035,0.009,1.008,0.52,-2.17,-25.97,0.019,0.04,0.993,1.35,-1.18,-7.75
16.263,1764971616.8758888,0.033,0.011,1.005,0.52,-2.16,-25.97,0.018,0.039,0.993,1.36,-1.18,-7.75
16.28,1764971616.892836,0.036,0.013,0.998,0.53,-2.16,-25.97,0.018,0.043,0.995,1.39,-1.18,-7.75
16.296999,1764971616.909899,0.038,0.012,1.004,0.53,-2.16,-25.97,0.019,0.043,0.994,1.41,-1.18,-7.75
16.313996,1764971616.9268138,0.037,0.01,1.0,0.53,-2.16,-25.97,0.019,0.041,0.993,1.43,-1.18,-7.75
16.332,1764971616.944855,0.039,0.008,1.004,0.53,-2.16,-25.97,0.015,0.042,0.995,1.45,-1.17,-7.75
16.349997,1764971616.962803,0.038,0.014,1.004,0.54,-2.16,-25.97,0.017,0.045,0.995,1.47,-1.17,-7.75
16.368,1764971616.9807491,0.044,0.013,1.006,0.54,-2.16,-25.97,0.023,0.042,0.996,1.49,-1.17,-7.75
16.385,1764971616.997789,0.036,0.01,1.003,0.54,-2.16,-25.97,0.018,0.04,0.994,1.5,-1.17,-7.75
16.402,1764971617.0147772,0.04,0.012,1.006,0.55,-2.16,-25.97,0.019,0.042,0.997,1.52,-1.16,-7.75
16.418999,1764971617.03174,0.038,0.014,1.006,0.55,-2.16,-25.98,0.022,0.047,0.997,1.54,-1.17,-7.75
16.436,1764971617.048772,0.039,0.014,1.005,0.56,-2.17,-25.98,0.021,0.042,0.997,1.56,-1.17,-7.75
16.454,1764971617.0667489,0.04,0.014,1.004,0.56,-2.17,-25.97,0.022,0.043,0.997,1.58,-1.17,-7.75
16.472,1764971617.0850701,0.037,0.01,1.002,0.56,-2.16,-25.97,0.019,0.04,0.995,1.59,-1.17,-7.75
16.489,1764971617.101655,0.039,0.013,1.007,0.56,-2.16,-25.98,0.02,0.048,0.998,1.61,-1.16,-7.75
16.506,1764971617.118786,0.039,0.009,1.007,0.56,-2.16,-25.98,0.021,0.039,0.996,1.62,-1.16,-7.75
16.522996,1764971617.135704,0.037,0.006,1.002,0.56,-2.16,-25.98,0.018,0.04,0.991,1.63,-1.16,-7.75
16.540996,1764971617.153721,0.036,0.008,1.004,0.55,-2.16,-25.98,0.02,0.042,0.998,1.65,-1.15,-7.75
16.558999,1764971617.171736,0.04,0.013,1.003,0.56,-2.16,-25.98,0.019,0.04,0.995,1.66,-1.15,-7.75
16.576999,1764971617.1896782,0.041,0.012,1.004,0.56,-2.16,-25.98,0.018,0.041,0.998,1.66,-1.15,-7.74
16.594997,1764971617.207606,0.035,0.011,1.007,0.56,-2.15,-25.98,0.017,0.046,0.992,1.68,-1.15,-7.74
16.612999,1764971617.2255292,0.032,0.011,1.007,0.56,-2.15,-25.99,0.017,0.039,0.996,1.69,-1.14,-7.74
16.63,1764971617.2425752,0.036,0.009,1.005,0.56,-2.14,-25.99,0.021,0.039,0.997,1.69,-1.14,-7.74
16.648,1764971617.260549,0.041,0.01,1.005,0.56,-2.15,-25.99,0.018,0.044,0.99,1.71,-1.14,-7.74
16.666,1764971617.2786088,0.043,0.01,1.004,0.56,-2.15,-25.98,0.021,0.045,0.993,1.73,-1.14,-7.74
16.682996,1764971617.295516,0.036,0.013,1.006,0.57,-2.15,-25.98,0.017,0.046,0.999,1.74,-1.14,-7.74
16.7,1764971617.3126678,0.032,0.018,1.037,0.56,-2.14,-25.98,0.02,0.037,0.991,1.75,-1.15,-7.75
